Time,accX,accY,accZ,DT,Hour
1573584486338.0,2.994011,7.8975563,6.1313396,2019-11-12 12:48:06.338000-06:00,2019-11-12 12:00
1573584486358.0,3.1952312000000003,7.832878,5.2857356,2019-11-12 12:48:06.358000-06:00,2019-11-12 12:00
1573584486379.0,2.8119547000000003,7.519070599999999,5.3096905,2019-11-12 12:48:06.379000-06:00,2019-11-12 12:00
1573584486398.0,2.3208816000000003,7.411274000000001,5.6929669999999994,2019-11-12 12:48:06.398000-06:00,2019-11-12 12:00
1573584486418.0,2.157989,7.4951158,5.841486499999999,2019-11-12 12:48:06.418000-06:00,2019-11-12 12:00
1573584486439.0,1.9447916,7.475952,6.0163565000000006,2019-11-12 12:48:06.439000-06:00,2019-11-12 12:00
1573584486459.0,2.0046785,7.610099000000001,5.9301195,2019-11-12 12:48:06.459000-06:00,2019-11-12 12:00
1573584486479.0,2.0022830000000003,7.600517,5.4414419999999994,2019-11-12 12:48:06.479000-06:00,2019-11-12 12:00
1573584486499.0,1.8681363999999998,7.543025500000001,5.086910700000001,2019-11-12 12:48:06.499000-06:00,2019-11-12 12:00
1573584486519.0,1.4129953000000002,7.602912400000001,4.971928,2019-11-12 12:48:06.519000-06:00,2019-11-12 12:00
1573584486539.0,1.240521,7.7562226999999995,5.2402215,2019-11-12 12:48:06.539000-06:00,2019-11-12 12:00
1573584486559.0,1.3986223999999998,7.689149400000001,5.1539845,2019-11-12 12:48:06.559000-06:00,2019-11-12 12:00
1573584486580.0,1.2309389,7.5526075,4.926414,2019-11-12 12:48:06.580000-06:00,2019-11-12 12:00
1573584486600.0,1.2501028,7.710709,5.122843,2019-11-12 12:48:06.600000-06:00,2019-11-12 12:00
1573584486619.0,1.3267579999999999,7.782573700000001,5.242617,2019-11-12 12:48:06.619000-06:00,2019-11-12 12:00
1573584486640.0,1.4800687,7.787364,4.763521,2019-11-12 12:48:06.640000-06:00,2019-11-12 12:00
1573584486660.0,1.8609498,7.9861889999999995,5.086910700000001,2019-11-12 12:48:06.660000-06:00,2019-11-12 12:00
1573584486679.0,2.287345,8.216155,5.6738029999999995,2019-11-12 12:48:06.679000-06:00,2019-11-12 12:00
1573584486700.0,2.562825,8.3718605,5.9205375,2019-11-12 12:48:06.700000-06:00,2019-11-12 12:00
1573584486720.0,2.5412657000000003,8.223341,5.613916000000001,2019-11-12 12:48:06.720000-06:00,2019-11-12 12:00
1573584486740.0,2.2945312999999996,8.072426,5.302504,2019-11-12 12:48:06.740000-06:00,2019-11-12 12:00
1573584486760.0,2.1388252,8.019726,5.2617807,2019-11-12 12:48:06.760000-06:00,2019-11-12 12:00
1573584486781.0,2.332859,8.21855,5.027024,2019-11-12 12:48:06.781000-06:00,2019-11-12 12:00
1573584486800.0,1.9543736,7.5741663,4.53116,2019-11-12 12:48:06.800000-06:00,2019-11-12 12:00
1573584486821.0,1.1135606000000002,6.690235,3.4100761,2019-11-12 12:48:06.821000-06:00,2019-11-12 12:00
1573584486841.0,1.1926113,7.1190257,3.00524,2019-11-12 12:48:06.841000-06:00,2019-11-12 12:00
1573584486862.0,0.7494478,6.707003599999999,3.2184377,2019-11-12 12:48:06.862000-06:00,2019-11-12 12:00
1573584486881.0,0.32784352,6.589625,3.826889,2019-11-12 12:48:06.881000-06:00,2019-11-12 12:00
1573584486901.0,0.50271344,6.905828,5.338436,2019-11-12 12:48:06.901000-06:00,2019-11-12 12:00
1573584486921.0,0.4667813,6.6758619999999995,5.851068499999999,2019-11-12 12:48:06.921000-06:00,2019-11-12 12:00
1573584486942.0,0.51229537,6.6159754,5.582775,2019-11-12 12:48:06.942000-06:00,2019-11-12 12:00
1573584486962.0,0.37096209999999996,6.0458517,5.417487,2019-11-12 12:48:06.962000-06:00,2019-11-12 12:00
1573584486981.0,0.3182616,7.1932855,5.7815995000000004,2019-11-12 12:48:06.981000-06:00,2019-11-12 12:00
1573584487002.0,0.5626004,7.0064383,6.004379,2019-11-12 12:48:07.002000-06:00,2019-11-12 12:00
1573584487022.0,1.3171761999999998,6.924992,6.667927000000001,2019-11-12 12:48:07.022000-06:00,2019-11-12 12:00
1573584487043.0,1.9998875,7.8759966,7.901598,2019-11-12 12:48:07.043000-06:00,2019-11-12 12:00
1573584487062.0,2.6011527,8.498821000000001,8.718456,2019-11-12 12:48:07.062000-06:00,2019-11-12 12:00
1573584487082.0,2.7424858,8.805442999999999,8.325598,2019-11-12 12:48:07.082000-06:00,2019-11-12 12:00
1573584487103.0,2.5867798,8.520381,7.082344,2019-11-12 12:48:07.103000-06:00,2019-11-12 12:00
1573584487122.0,2.6394804,8.002957,6.193622,2019-11-12 12:48:07.122000-06:00,2019-11-12 12:00
1573584487143.0,2.5819888,7.727477599999999,5.978029,2019-11-12 12:48:07.143000-06:00,2019-11-12 12:00
1573584487163.0,2.3352543999999997,7.7921553,6.013961,2019-11-12 12:48:07.163000-06:00,2019-11-12 12:00
1573584487183.0,2.3663957000000004,6.956133,5.6738029999999995,2019-11-12 12:48:07.183000-06:00,2019-11-12 12:00
1573584487203.0,2.0765429,6.580042999999999,5.206685,2019-11-12 12:48:07.203000-06:00,2019-11-12 12:00
1573584487223.0,1.7291985,6.3357043,5.4701877,2019-11-12 12:48:07.223000-06:00,2019-11-12 12:00
1573584487244.0,1.681289,5.7464166,5.5252833,2019-11-12 12:48:07.244000-06:00,2019-11-12 12:00
1573584487263.0,1.8369951,6.057829,6.56013,2019-11-12 12:48:07.263000-06:00,2019-11-12 12:00
1573584487284.0,2.0454016,6.414755,7.077553699999999,2019-11-12 12:48:07.284000-06:00,2019-11-12 12:00
1573584487304.0,1.5998427,6.340495,6.56013,2019-11-12 12:48:07.304000-06:00,2019-11-12 12:00
1573584487324.0,1.1734474,6.249467,5.7696223,2019-11-12 12:48:07.324000-06:00,2019-11-12 12:00
1573584487345.0,0.9674363000000001,6.1272974,5.343227,2019-11-12 12:48:07.345000-06:00,2019-11-12 12:00
1573584487365.0,0.8189166999999999,6.043456,5.4270687,2019-11-12 12:48:07.365000-06:00,2019-11-12 12:00
1573584487386.0,1.2429163,5.9141,6.43317,2019-11-12 12:48:07.386000-06:00,2019-11-12 12:00
1573584487405.0,2.0454016,6.4387097,7.3506384,2019-11-12 12:48:07.405000-06:00,2019-11-12 12:00
1573584487425.0,2.5987572999999995,6.687839500000001,7.860875,2019-11-12 12:48:07.425000-06:00,2019-11-12 12:00
1573584487445.0,2.7975817000000003,6.6016026,8.351948,2019-11-12 12:48:07.445000-06:00,2019-11-12 12:00
1573584487466.0,3.049107,6.965714999999999,8.481304,2019-11-12 12:48:07.466000-06:00,2019-11-12 12:00
1573584487486.0,3.2910504,6.984878999999999,8.023767,2019-11-12 12:48:07.486000-06:00,2019-11-12 12:00
1573584487506.0,2.934124,6.6806529999999995,7.424898,2019-11-12 12:48:07.506000-06:00,2019-11-12 12:00
1573584487526.0,2.6730169999999998,6.649512,7.2620059999999995,2019-11-12 12:48:07.526000-06:00,2019-11-12 12:00
1573584487546.0,2.6730169999999998,6.8363595,6.9937119999999995,2019-11-12 12:48:07.546000-06:00,2019-11-12 12:00
1573584487567.0,2.6658306,6.9369693,6.617621400000001,2019-11-12 12:48:07.567000-06:00,2019-11-12 12:00
1573584487586.0,2.6251075,6.8962460000000005,6.378074,2019-11-12 12:48:07.586000-06:00,2019-11-12 12:00
1573584487606.0,2.4190962000000003,6.702212299999999,6.169667,2019-11-12 12:48:07.606000-06:00,2019-11-12 12:00
1573584487627.0,2.2106895,6.810009,5.954073999999999,2019-11-12 12:48:07.627000-06:00,2019-11-12 12:00
1573584487647.0,2.4646103,6.575252000000001,6.4092150000000006,2019-11-12 12:48:07.647000-06:00,2019-11-12 12:00
1573584487667.0,2.8526778,6.580042999999999,6.33256,2019-11-12 12:48:07.667000-06:00,2019-11-12 12:00
1573584487687.0,3.0011976000000002,6.5728564,6.339746,2019-11-12 12:48:07.687000-06:00,2019-11-12 12:00
1573584487708.0,2.883819,6.400382,6.399633000000001,2019-11-12 12:48:07.708000-06:00,2019-11-12 12:00
1573584487727.0,2.6897852,6.1728115,6.481079599999999,2019-11-12 12:48:07.727000-06:00,2019-11-12 12:00
1573584487748.0,2.5891752,6.2279077,6.246322599999999,2019-11-12 12:48:07.748000-06:00,2019-11-12 12:00
1573584487768.0,2.4047234,6.132088700000001,5.9373059999999995,2019-11-12 12:48:07.768000-06:00,2019-11-12 12:00
1573584487787.0,2.3160908,6.1680209999999995,6.088221,2019-11-12 12:48:07.787000-06:00,2019-11-12 12:00
1573584487808.0,2.4694013999999997,6.3165402,6.3972373,2019-11-12 12:48:07.808000-06:00,2019-11-12 12:00
1573584487828.0,2.8143504,6.4291279999999995,6.497848,2019-11-12 12:48:07.828000-06:00,2019-11-12 12:00
1573584487848.0,3.1664855,6.529738,6.4954524000000005,2019-11-12 12:48:07.848000-06:00,2019-11-12 12:00
1573584487868.0,3.3557284,6.5177603,6.53378,2019-11-12 12:48:07.868000-06:00,2019-11-12 12:00
1573584487888.0,3.5521576,6.3908005,6.1984129999999995,2019-11-12 12:48:07.888000-06:00,2019-11-12 12:00
1573584487908.0,3.5785080000000002,6.323727,6.4499379999999995,2019-11-12 12:48:07.908000-06:00,2019-11-12 12:00
1573584487929.0,3.669536,6.0075235000000005,6.3373504,2019-11-12 12:48:07.929000-06:00,2019-11-12 12:00
1573584487948.0,3.5593440000000003,6.4578733,6.569711999999999,2019-11-12 12:48:07.948000-06:00,2019-11-12 12:00
1573584487968.0,3.1760676,6.3261223,7.005689,2019-11-12 12:48:07.968000-06:00,2019-11-12 12:00
1573584487989.0,2.7903955000000003,5.9668007,8.1124,2019-11-12 12:48:07.989000-06:00,2019-11-12 12:00
1573584488009.0,3.1760676,5.317626000000001,8.828648,2019-11-12 12:48:08.009000-06:00,2019-11-12 12:00
1573584488029.0,3.9881344,4.9559083,9.049032,2019-11-12 12:48:08.029000-06:00,2019-11-12 12:00
1573584488049.0,3.8276377,4.924767500000001,9.147247,2019-11-12 12:48:08.049000-06:00,2019-11-12 12:00
1573584488070.0,3.123367,4.603773599999999,8.704084,2019-11-12 12:48:08.070000-06:00,2019-11-12 12:00
1573584488090.0,3.041921,4.7307334,8.423813,2019-11-12 12:48:08.090000-06:00,2019-11-12 12:00
1573584488110.0,3.1569037,5.1715016,7.9998130000000005,2019-11-12 12:48:08.110000-06:00,2019-11-12 12:00
1573584488130.0,3.1880447999999997,5.3128347,7.95909,2019-11-12 12:48:08.130000-06:00,2019-11-12 12:00
1573584488150.0,3.0754572999999996,5.027773000000001,8.196242,2019-11-12 12:48:08.150000-06:00,2019-11-12 12:00
1573584488170.0,2.9604745,4.9559083,7.9566936,2019-11-12 12:48:08.170000-06:00,2019-11-12 12:00
1573584488190.0,2.9125647999999997,4.7451067,7.4823885,2019-11-12 12:48:08.190000-06:00,2019-11-12 12:00
1573584488210.0,2.7999772999999997,4.668451,7.556649,2019-11-12 12:48:08.210000-06:00,2019-11-12 12:00
1573584488230.0,2.7975817000000003,4.443276,7.283564599999999,2019-11-12 12:48:08.230000-06:00,2019-11-12 12:00
1573584488251.0,2.883819,4.5151405,7.132649400000001,2019-11-12 12:48:08.251000-06:00,2019-11-12 12:00
1573584488271.0,3.0706666,4.7139654,7.185349499999999,2019-11-12 12:48:08.271000-06:00,2019-11-12 12:00
1573584488291.0,3.2383502,4.807389,7.115881,2019-11-12 12:48:08.291000-06:00,2019-11-12 12:00
1573584488310.0,3.128158,4.8960214,7.0464125,2019-11-12 12:48:08.310000-06:00,2019-11-12 12:00
1573584488331.0,3.0395252999999998,4.934349500000001,6.8907065,2019-11-12 12:48:08.331000-06:00,2019-11-12 12:00
1573584488351.0,3.1760676,5.0397506,7.0008984,2019-11-12 12:48:08.351000-06:00,2019-11-12 12:00
1573584488371.0,3.2311634999999996,5.0134,7.28596,2019-11-12 12:48:08.371000-06:00,2019-11-12 12:00
1573584488391.0,3.2551183999999997,4.8960214,7.3554287,2019-11-12 12:48:08.391000-06:00,2019-11-12 12:00
1573584488411.0,3.2119999999999997,5.0732870000000005,7.5326949999999995,2019-11-12 12:48:08.411000-06:00,2019-11-12 12:00
1573584488431.0,3.0323389,4.848112,7.5877905,2019-11-12 12:48:08.431000-06:00,2019-11-12 12:00
1573584488452.0,2.9604745,4.927163,7.815361,2019-11-12 12:48:08.452000-06:00,2019-11-12 12:00
1573584488471.0,3.1209714,5.070891400000001,7.868061999999999,2019-11-12 12:48:08.471000-06:00,2019-11-12 12:00
1573584488491.0,3.343751,5.037355000000001,7.398547,2019-11-12 12:48:08.491000-06:00,2019-11-12 12:00
1573584488511.0,3.2575138,5.2745074999999995,7.851292599999999,2019-11-12 12:48:08.511000-06:00,2019-11-12 12:00
1573584488531.0,3.1209714,5.228993,7.949507700000001,2019-11-12 12:48:08.531000-06:00,2019-11-12 12:00
1573584488552.0,3.2119999999999997,5.224202,7.8393164,2019-11-12 12:48:08.552000-06:00,2019-11-12 12:00
1573584488572.0,3.274282,5.202643,7.805778500000001,2019-11-12 12:48:08.572000-06:00,2019-11-12 12:00
1573584488592.0,3.1616945,5.0397506,7.4680165999999994,2019-11-12 12:48:08.592000-06:00,2019-11-12 12:00
1573584488612.0,3.1257625,5.1643156999999995,7.405734,2019-11-12 12:48:08.612000-06:00,2019-11-12 12:00
1573584488632.0,2.9700563,5.2457614,7.4895762999999995,2019-11-12 12:48:08.632000-06:00,2019-11-12 12:00
1573584488653.0,2.948497,5.085264700000001,7.539880800000001,2019-11-12 12:48:08.653000-06:00,2019-11-12 12:00
1573584488672.0,3.1592991,5.322417,7.566231,2019-11-12 12:48:08.672000-06:00,2019-11-12 12:00
1573584488692.0,3.1880447999999997,5.3775129999999995,7.542276400000001,2019-11-12 12:48:08.692000-06:00,2019-11-12 12:00
1573584488712.0,3.1425307,5.341580400000001,7.537485,2019-11-12 12:48:08.712000-06:00,2019-11-12 12:00
1573584488733.0,3.3341691,5.3200216,7.3769884,2019-11-12 12:48:08.733000-06:00,2019-11-12 12:00
1573584488753.0,3.2215814999999997,5.3535580000000005,7.60935,2019-11-12 12:48:08.753000-06:00,2019-11-12 12:00
1573584488773.0,2.8359096,5.2170157,7.796197,2019-11-12 12:48:08.773000-06:00,2019-11-12 12:00
1573584488793.0,2.7975817000000003,5.152337999999999,7.7411012999999995,2019-11-12 12:48:08.793000-06:00,2019-11-12 12:00
1573584488813.0,2.8934011,5.1164055,7.796197,2019-11-12 12:48:08.813000-06:00,2019-11-12 12:00
1573584488833.0,2.9604745,5.1331739999999995,8.006999,2019-11-12 12:48:08.833000-06:00,2019-11-12 12:00
1573584488854.0,2.9053786,5.130778299999999,8.114796,2019-11-12 12:48:08.854000-06:00,2019-11-12 12:00
1573584488874.0,2.8023727000000003,5.147547,8.057304,2019-11-12 12:48:08.874000-06:00,2019-11-12 12:00
1573584488894.0,2.6298983,5.1643156999999995,8.006999,2019-11-12 12:48:08.894000-06:00,2019-11-12 12:00
1573584488914.0,2.5388702999999997,5.169106,7.923157700000001,2019-11-12 12:48:08.914000-06:00,2019-11-12 12:00
1573584488934.0,2.562825,5.183479,7.6620502,2019-11-12 12:48:08.934000-06:00,2019-11-12 12:00
1573584488954.0,2.5915709,5.135569599999999,7.506344,2019-11-12 12:48:08.954000-06:00,2019-11-12 12:00
1573584488974.0,2.7065537,5.183479,7.599767699999999,2019-11-12 12:48:08.974000-06:00,2019-11-12 12:00
1573584488994.0,2.7664409,5.1547336999999995,7.630909,2019-11-12 12:48:08.994000-06:00,2019-11-12 12:00
1573584489015.0,2.7448813999999997,5.130778299999999,7.690796000000001,2019-11-12 12:48:09.015000-06:00,2019-11-12 12:00
1573584489035.0,2.934124,5.272112,7.508739500000001,2019-11-12 12:48:09.035000-06:00,2019-11-12 12:00
1573584489054.0,3.1473217,5.331999,7.367407000000001,2019-11-12 12:48:09.054000-06:00,2019-11-12 12:00
1573584489075.0,3.0826437,5.375117299999999,7.4799940000000005,2019-11-12 12:48:09.075000-06:00,2019-11-12 12:00
1573584489095.0,3.123367,5.4709363,7.3841753,2019-11-12 12:48:09.095000-06:00,2019-11-12 12:00
1573584489115.0,3.2479317,5.552383,7.223677599999999,2019-11-12 12:48:09.115000-06:00,2019-11-12 12:00
1573584489135.0,3.2215814999999997,5.545196499999999,7.156605,2019-11-12 12:48:09.135000-06:00,2019-11-12 12:00
1573584489156.0,3.2383502,5.528428,7.1590004,2019-11-12 12:48:09.156000-06:00,2019-11-12 12:00
1573584489175.0,3.1928357999999997,5.523637,7.178163499999999,2019-11-12 12:48:09.175000-06:00,2019-11-12 12:00
1573584489195.0,3.1065986,5.5068684,7.221282,2019-11-12 12:48:09.195000-06:00,2019-11-12 12:00
1573584489215.0,3.118576,5.5020776,7.2284690000000005,2019-11-12 12:48:09.215000-06:00,2019-11-12 12:00
1573584489236.0,3.1952312000000003,5.561964499999999,7.0727625,2019-11-12 12:48:09.236000-06:00,2019-11-12 12:00
1573584489256.0,3.2958415,5.6314335,7.137440700000001,2019-11-12 12:48:09.256000-06:00,2019-11-12 12:00
1573584489276.0,3.3581237999999995,5.724857,7.1733723,2019-11-12 12:48:09.276000-06:00,2019-11-12 12:00
1573584489296.0,3.4563386,5.770371400000001,7.2093050000000005,2019-11-12 12:48:09.296000-06:00,2019-11-12 12:00
1573584489316.0,3.4491519999999998,5.8063035,7.3578243,2019-11-12 12:48:09.316000-06:00,2019-11-12 12:00
1573584489336.0,3.4563386,5.8757725,7.4105253,2019-11-12 12:48:09.336000-06:00,2019-11-12 12:00
1573584489356.0,3.659954,6.043456,7.321892699999999,2019-11-12 12:48:09.356000-06:00,2019-11-12 12:00
1573584489377.0,4.014485,6.2326984,6.967361500000001,2019-11-12 12:48:09.377000-06:00,2019-11-12 12:00
1573584489397.0,4.036044,6.11532,6.8068643,2019-11-12 12:48:09.397000-06:00,2019-11-12 12:00
1573584489412.0,3.8539882000000003,5.873377,6.699068,2019-11-12 12:48:09.412000-06:00,2019-11-12 12:00
1573584489437.0,3.5785080000000002,5.748812,6.514616,2019-11-12 12:48:09.437000-06:00,2019-11-12 12:00
1573584489457.0,3.2335591,5.5404053,6.2175769999999995,2019-11-12 12:48:09.457000-06:00,2019-11-12 12:00
1573584489477.0,3.0874348,5.4948916,6.1265483,2019-11-12 12:48:09.477000-06:00,2019-11-12 12:00
1573584489497.0,3.0275478,5.454168,6.3110003,2019-11-12 12:48:09.497000-06:00,2019-11-12 12:00
1573584489517.0,2.958079,5.3631400000000005,6.574503,2019-11-12 12:48:09.517000-06:00,2019-11-12 12:00
1573584489538.0,2.9077737,5.3607445,6.742186500000001,2019-11-12 12:48:09.538000-06:00,2019-11-12 12:00
1573584489558.0,2.9748473,5.458958999999999,6.660740400000001,2019-11-12 12:48:09.558000-06:00,2019-11-12 12:00
1573584489578.0,3.0059886000000002,5.46375,6.6918817,2019-11-12 12:48:09.578000-06:00,2019-11-12 12:00
1573584489598.0,2.943706,5.4086537,7.118276600000001,2019-11-12 12:48:09.598000-06:00,2019-11-12 12:00
1573584489618.0,3.0299432,5.5164504,7.432084,2019-11-12 12:48:09.618000-06:00,2019-11-12 12:00
1573584489638.0,3.343751,5.6410155,7.518322,2019-11-12 12:48:09.638000-06:00,2019-11-12 12:00
1573584489658.0,3.6216266000000004,5.734439,7.427294,2019-11-12 12:48:09.658000-06:00,2019-11-12 12:00
1573584489678.0,3.5617394,5.688925,7.398547,2019-11-12 12:48:09.678000-06:00,2019-11-12 12:00
1573584489699.0,3.408429,5.652993,7.434479700000001,2019-11-12 12:48:09.699000-06:00,2019-11-12 12:00
1573584489719.0,3.4419656,5.8853545,7.314706,2019-11-12 12:48:09.719000-06:00,2019-11-12 12:00
1573584489739.0,4.004903,6.7620993,6.773328,2019-11-12 12:48:09.739000-06:00,2019-11-12 12:00
1573584489759.0,5.358348400000001,8.240110000000001,5.944492299999999,2019-11-12 12:48:09.759000-06:00,2019-11-12 12:00
1573584489779.0,6.8986410000000005,9.004267,4.5646963,2019-11-12 12:48:09.779000-06:00,2019-11-12 12:00
1573584489799.0,7.9646287,9.234233,4.490437,2019-11-12 12:48:09.799000-06:00,2019-11-12 12:00
1573584489820.0,7.157352400000001,10.017555,8.306434,2019-11-12 12:48:09.820000-06:00,2019-11-12 12:00
1573584489840.0,6.0722013,7.435229,8.998727,2019-11-12 12:48:09.840000-06:00,2019-11-12 12:00
1573584489859.0,4.500767,4.622937,8.768761,2019-11-12 12:48:09.859000-06:00,2019-11-12 12:00
1573584489879.0,0.7566341,3.5449717000000005,10.716285000000001,2019-11-12 12:48:09.879000-06:00,2019-11-12 12:00
1573584489900.0,-1.1333984,1.233335,11.799042,2019-11-12 12:48:09.900000-06:00,2019-11-12 12:00
1573584489920.0,-1.4424151,-1.1405842,11.030092999999999,2019-11-12 12:48:09.920000-06:00,2019-11-12 12:00
1573584489940.0,-2.6569228,-1.6675895,10.505483,2019-11-12 12:48:09.940000-06:00,2019-11-12 12:00
1573584489960.0,-3.4929447,-1.7490358,9.269416,2019-11-12 12:48:09.960000-06:00,2019-11-12 12:00
1573584489981.0,-3.6007411,-1.4352280000000002,7.697983,2019-11-12 12:48:09.981000-06:00,2019-11-12 12:00
1573584490001.0,-3.8522665999999997,-1.3154541000000002,7.367407000000001,2019-11-12 12:48:10.001000-06:00,2019-11-12 12:00
1573584490021.0,-4.0966053,-0.9633187,7.293146000000001,2019-11-12 12:48:10.021000-06:00,2019-11-12 12:00
1573584490041.0,-4.0319275999999995,-0.1799973,6.847587599999999,2019-11-12 12:48:10.041000-06:00,2019-11-12 12:00
1573584490061.0,-2.8605384999999997,0.80933535,6.988921,2019-11-12 12:48:10.061000-06:00,2019-11-12 12:00
1573584490081.0,-1.3992963999999999,1.7579448,7.005689,2019-11-12 12:48:10.081000-06:00,2019-11-12 12:00
1573584490101.0,0.15776455,2.749673,6.773328,2019-11-12 12:48:10.101000-06:00,2019-11-12 12:00
1573584490121.0,2.4789833999999997,4.2300787,6.1265483,2019-11-12 12:48:10.121000-06:00,2019-11-12 12:00
1573584490141.0,4.876857,5.748812,4.3898263,2019-11-12 12:48:10.141000-06:00,2019-11-12 12:00
1573584490161.0,5.7991166,6.2422805,3.7023243999999997,2019-11-12 12:48:10.161000-06:00,2019-11-12 12:00
1573584490181.0,5.6050825,5.904518,4.5646963,2019-11-12 12:48:10.181000-06:00,2019-11-12 12:00
1573584490202.0,6.043455000000001,6.3380995,4.2844253,2019-11-12 12:48:10.202000-06:00,2019-11-12 12:00
1573584490222.0,6.477037,6.603998,5.096493,2019-11-12 12:48:10.222000-06:00,2019-11-12 12:00
1573584490242.0,7.7202896999999995,7.023206,4.8641315,2019-11-12 12:48:10.242000-06:00,2019-11-12 12:00
1573584490262.0,8.898866,7.4232516,4.4137816,2019-11-12 12:48:10.262000-06:00,2019-11-12 12:00
1573584490282.0,9.023431,7.4256470000000006,5.3096905,2019-11-12 12:48:10.282000-06:00,2019-11-12 12:00
1573584490302.0,8.429352,6.6423254,5.932515,2019-11-12 12:48:10.302000-06:00,2019-11-12 12:00
1573584490322.0,8.515589,6.218326,4.7754984,2019-11-12 12:48:10.322000-06:00,2019-11-12 12:00
1573584490343.0,8.470075,6.0027328,3.1849008,2019-11-12 12:48:10.343000-06:00,2019-11-12 12:00
1573584490363.0,8.060448,5.882959,3.0076354,2019-11-12 12:48:10.363000-06:00,2019-11-12 12:00
1573584490383.0,7.933488400000001,5.8063035,3.3022795,2019-11-12 12:48:10.383000-06:00,2019-11-12 12:00
1573584490403.0,7.835273299999999,5.8063035,3.7622112999999997,2019-11-12 12:48:10.403000-06:00,2019-11-12 12:00
1573584490423.0,7.844855,5.88775,4.753939599999999,2019-11-12 12:48:10.423000-06:00,2019-11-12 12:00
1573584490443.0,7.959838400000001,5.799117,5.053374,2019-11-12 12:48:10.443000-06:00,2019-11-12 12:00
1573584490463.0,8.220944,5.7655807,3.73107,2019-11-12 12:48:10.463000-06:00,2019-11-12 12:00
1573584490483.0,8.113149,5.6410155,3.0339856,2019-11-12 12:48:10.483000-06:00,2019-11-12 12:00
1573584490503.0,7.617285000000001,5.413444999999999,3.5011038999999995,2019-11-12 12:48:10.503000-06:00,2019-11-12 12:00
1573584490523.0,7.2052627000000005,5.300857499999999,3.800539,2019-11-12 12:48:10.523000-06:00,2019-11-12 12:00
1573584490544.0,6.972900999999999,4.9726767999999995,4.186211,2019-11-12 12:48:10.544000-06:00,2019-11-12 12:00
1573584490564.0,6.6111835999999995,4.733129,4.6796794,2019-11-12 12:48:10.564000-06:00,2019-11-12 12:00
1573584490584.0,6.4147544000000005,4.546282,5.041397,2019-11-12 12:48:10.584000-06:00,2019-11-12 12:00
1573584490604.0,6.352472,4.4001575,5.177939,2019-11-12 12:48:10.604000-06:00,2019-11-12 12:00
1573584490624.0,6.2494664,4.38818,4.856945,2019-11-12 12:48:10.624000-06:00,2019-11-12 12:00
1573584490645.0,6.218325,4.076768,5.0390015,2019-11-12 12:48:10.645000-06:00,2019-11-12 12:00
1573584490665.0,6.136879,3.6479769999999996,5.8007636,2019-11-12 12:48:10.665000-06:00,2019-11-12 12:00
1573584490685.0,6.2039523,3.5042486000000004,6.0762434,2019-11-12 12:48:10.685000-06:00,2019-11-12 12:00
1573584490705.0,6.4458957,3.851593,5.9900064,2019-11-12 12:48:10.705000-06:00,2019-11-12 12:00
1573584490725.0,6.987274,4.1031184000000005,5.7097354000000005,2019-11-12 12:48:10.725000-06:00,2019-11-12 12:00
1573584490745.0,7.4759517,4.1749825,5.5947523,2019-11-12 12:48:10.745000-06:00,2019-11-12 12:00
1573584490766.0,7.739453999999999,4.1869597,5.73369,2019-11-12 12:48:10.766000-06:00,2019-11-12 12:00
1573584490786.0,7.552606599999999,4.2181014999999995,5.8702326,2019-11-12 12:48:10.786000-06:00,2019-11-12 12:00
1573584490806.0,7.3513865,4.3043385,6.3852606,2019-11-12 12:48:10.806000-06:00,2019-11-12 12:00
1573584490826.0,7.152562,4.337875,6.363701,2019-11-12 12:48:10.826000-06:00,2019-11-12 12:00
1573584490846.0,6.958528,4.3905754,5.690571299999999,2019-11-12 12:48:10.846000-06:00,2019-11-12 12:00
1573584490866.0,6.788449000000001,4.285174400000001,4.998278,2019-11-12 12:48:10.866000-06:00,2019-11-12 12:00
1573584490886.0,6.853127000000001,4.354643299999999,4.8497585999999995,2019-11-12 12:48:10.886000-06:00,2019-11-12 12:00
1573584490906.0,6.8507314,4.4504623,4.2844253,2019-11-12 12:48:10.906000-06:00,2019-11-12 12:00
1573584490926.0,6.479432599999999,4.210915,3.7190924,2019-11-12 12:48:10.926000-06:00,2019-11-12 12:00
1573584490947.0,6.0985513,4.0432315,3.52985,2019-11-12 12:48:10.947000-06:00,2019-11-12 12:00
1573584490967.0,5.8398395,3.8635707000000004,3.661601,2019-11-12 12:48:10.967000-06:00,2019-11-12 12:00
1573584490987.0,6.048246,3.921062,3.565782,2019-11-12 12:48:10.987000-06:00,2019-11-12 12:00
1573584491007.0,6.8698955,4.1150956,3.7693977,2019-11-12 12:48:11.007000-06:00,2019-11-12 12:00
1573584491027.0,7.150166499999999,3.887525,4.8904815,2019-11-12 12:48:11.027000-06:00,2019-11-12 12:00
1573584491047.0,6.891454700000001,3.9282483999999998,4.988696599999999,2019-11-12 12:48:11.047000-06:00,2019-11-12 12:00
1573584491067.0,6.817195,4.100723,4.7802896,2019-11-12 12:48:11.067000-06:00,2019-11-12 12:00
1573584491087.0,6.941759599999999,4.385785,5.5444474,2019-11-12 12:48:11.087000-06:00,2019-11-12 12:00
1573584491107.0,7.188494,4.678033,5.951678299999999,2019-11-12 12:48:11.107000-06:00,2019-11-12 12:00
1573584491127.0,7.504697,4.848112,6.478683999999999,2019-11-12 12:48:11.127000-06:00,2019-11-12 12:00
1573584491147.0,7.691544500000001,4.91279,7.034435,2019-11-12 12:48:11.147000-06:00,2019-11-12 12:00
1573584491167.0,7.739453999999999,5.0828690000000005,6.7565593999999995,2019-11-12 12:48:11.167000-06:00,2019-11-12 12:00
1573584491187.0,7.598121000000001,5.272112,5.978029,2019-11-12 12:48:11.187000-06:00,2019-11-12 12:00
1573584491207.0,7.152562,5.4757276,5.7672267,2019-11-12 12:48:11.207000-06:00,2019-11-12 12:00
1573584491228.0,6.548901,5.504473,6.102594,2019-11-12 12:48:11.228000-06:00,2019-11-12 12:00
1573584491248.0,6.376427,5.5811285999999996,5.6833849999999995,2019-11-12 12:48:11.248000-06:00,2019-11-12 12:00
1573584491268.0,6.69263,5.724857,4.7036343,2019-11-12 12:48:11.268000-06:00,2019-11-12 12:00
1573584491289.0,7.2411947,5.4086537,4.988696599999999,2019-11-12 12:48:11.289000-06:00,2019-11-12 12:00
1573584491309.0,7.816109,5.1810837,6.6655316,2019-11-12 12:48:11.309000-06:00,2019-11-12 12:00
1573584491329.0,7.813714500000001,5.145151599999999,7.6357,2019-11-12 12:48:11.329000-06:00,2019-11-12 12:00
1573584491349.0,6.884268,4.809784400000001,6.914661,2019-11-12 12:48:11.349000-06:00,2019-11-12 12:00
1573584491369.0,5.8757715,4.654078500000001,5.843882,2019-11-12 12:48:11.369000-06:00,2019-11-12 12:00
1573584491389.0,5.3463709999999995,4.7187567,5.4270687,2019-11-12 12:48:11.389000-06:00,2019-11-12 12:00
1573584491409.0,5.219410400000001,4.555863400000001,6.2606955,2019-11-12 12:48:11.409000-06:00,2019-11-12 12:00
1573584491429.0,5.118800599999999,4.5343046,7.2691917,2019-11-12 12:48:11.429000-06:00,2019-11-12 12:00
1573584491450.0,4.7714562,4.46244,7.942321000000001,2019-11-12 12:48:11.450000-06:00,2019-11-12 12:00
1573584491469.0,4.445671,4.16061,7.95909,2019-11-12 12:48:11.469000-06:00,2019-11-12 12:00
1573584491489.0,3.8156605000000003,3.6024632000000003,7.3961515,2019-11-12 12:48:11.489000-06:00,2019-11-12 12:00
1573584491509.0,1.7124301,3.8348246,7.4296894,2019-11-12 12:48:11.509000-06:00,2019-11-12 12:00
1573584491530.0,0.09787756,4.678033,9.372422,2019-11-12 12:48:11.530000-06:00,2019-11-12 12:00
1573584491550.0,0.19369671,3.8635707000000004,8.5387945,2019-11-12 12:48:11.550000-06:00,2019-11-12 12:00
1573584491570.0,0.9937866,2.8287237000000003,8.01179,2019-11-12 12:48:11.570000-06:00,2019-11-12 12:00
1573584491590.0,0.8261030999999999,2.8263283,7.755474,2019-11-12 12:48:11.590000-06:00,2019-11-12 12:00
1573584491611.0,0.43084905,3.4539435,6.859564999999999,2019-11-12 12:48:11.611000-06:00,2019-11-12 12:00
1573584491631.0,1.1926113,2.354419,6.176853700000001,2019-11-12 12:48:11.631000-06:00,2019-11-12 12:00
1573584491651.0,1.111165,2.3017185000000002,6.5625253,2019-11-12 12:48:11.651000-06:00,2019-11-12 12:00
1573584491671.0,0.6967472,3.0898309,7.887225,2019-11-12 12:48:11.671000-06:00,2019-11-12 12:00
1573584491691.0,1.0991876,3.0610852000000004,8.792716,2019-11-12 12:48:11.691000-06:00,2019-11-12 12:00
1573584491711.0,2.0693563999999998,2.9149609,9.283789,2019-11-12 12:48:11.711000-06:00,2019-11-12 12:00
1573584491731.0,1.9112548999999999,3.231164,8.773552,2019-11-12 12:48:11.731000-06:00,2019-11-12 12:00
1573584491752.0,1.8010628,3.5329945,8.069282000000001,2019-11-12 12:48:11.752000-06:00,2019-11-12 12:00
1573584491772.0,2.0406108,3.4132203999999997,8.457349,2019-11-12 12:48:11.772000-06:00,2019-11-12 12:00
1573584491791.0,2.5053334,3.3006330000000004,8.490886,2019-11-12 12:48:11.791000-06:00,2019-11-12 12:00
1573584491812.0,2.5556386000000004,3.1497178,8.629824000000001,2019-11-12 12:48:11.812000-06:00,2019-11-12 12:00
1573584491832.0,1.7747126,2.694577,9.195157,2019-11-12 12:48:11.832000-06:00,2019-11-12 12:00
1573584491852.0,1.7004528,2.5771985,9.76528,2019-11-12 12:48:11.852000-06:00,2019-11-12 12:00
1573584491872.0,2.567616,2.9293337000000004,9.995246,2019-11-12 12:48:11.872000-06:00,2019-11-12 12:00
1573584491892.0,2.3065088,3.120972,10.297077,2019-11-12 12:48:11.892000-06:00,2019-11-12 12:00
1573584491912.0,1.0105549,3.2718873,9.726953,2019-11-12 12:48:11.912000-06:00,2019-11-12 12:00
1573584491932.0,0.9554589,3.0083845,9.125688,2019-11-12 12:48:11.932000-06:00,2019-11-12 12:00
1573584491952.0,1.4129953000000002,3.1137857,9.204739,2019-11-12 12:48:11.952000-06:00,2019-11-12 12:00
1573584491972.0,2.3999326,3.3629154999999997,9.631134,2019-11-12 12:48:11.972000-06:00,2019-11-12 12:00
1573584491992.0,3.1664855,3.9498076,9.276603,2019-11-12 12:48:11.992000-06:00,2019-11-12 12:00
1573584492013.0,2.4765878,3.6982825,9.844331,2019-11-12 12:48:12.013000-06:00,2019-11-12 12:00
1573584492033.0,1.681289,3.025153,10.433619,2019-11-12 12:48:12.033000-06:00,2019-11-12 12:00
1573584492053.0,0.76142514,3.235955,10.507878999999999,2019-11-12 12:48:12.053000-06:00,2019-11-12 12:00
1573584492073.0,0.25597915,3.2886555,9.628738,2019-11-12 12:48:12.073000-06:00,2019-11-12 12:00
1573584492093.0,0.81173015,2.850283,8.63701,2019-11-12 12:48:12.093000-06:00,2019-11-12 12:00
1573584492113.0,0.95306337,2.179549,9.614365,2019-11-12 12:48:12.113000-06:00,2019-11-12 12:00
1573584492133.0,1.101583,2.3735828,9.599992,2019-11-12 12:48:12.133000-06:00,2019-11-12 12:00
1573584492154.0,1.2045887,2.4454472000000003,9.693416000000001,2019-11-12 12:48:12.154000-06:00,2019-11-12 12:00
1573584492174.0,1.1902158,2.4885657,9.66467,2019-11-12 12:48:12.174000-06:00,2019-11-12 12:00
1573584492194.0,1.6741023999999998,2.244227,10.038364999999999,2019-11-12 12:48:12.194000-06:00,2019-11-12 12:00
1573584492214.0,1.8992773999999997,1.8705323,9.767676,2019-11-12 12:48:12.214000-06:00,2019-11-12 12:00
1573584492234.0,1.7052436999999998,2.9245427000000004,8.88614,2019-11-12 12:48:12.234000-06:00,2019-11-12 12:00
1573584492255.0,2.086125,2.8215373,8.495677,2019-11-12 12:48:12.255000-06:00,2019-11-12 12:00
1573584492275.0,2.2298536,2.505334,8.296852000000001,2019-11-12 12:48:12.275000-06:00,2019-11-12 12:00
1573584492295.0,2.392746,2.6730175,7.915971000000001,2019-11-12 12:48:12.295000-06:00,2019-11-12 12:00
1573584492315.0,2.3711867,2.6849950000000002,8.380694,2019-11-12 12:48:12.315000-06:00,2019-11-12 12:00
1573584492335.0,2.1795485,2.804769,8.735225,2019-11-12 12:48:12.335000-06:00,2019-11-12 12:00
1573584492355.0,1.9591644,2.6730175,9.008308999999999,2019-11-12 12:48:12.355000-06:00,2019-11-12 12:00
1573584492375.0,1.551933,2.7424865,9.111315,2019-11-12 12:48:12.375000-06:00,2019-11-12 12:00
1573584492395.0,1.4297636999999999,2.8574696,8.905304,2019-11-12 12:48:12.395000-06:00,2019-11-12 12:00
1573584492415.0,1.5303738000000002,2.8143506,8.677732,2019-11-12 12:48:12.415000-06:00,2019-11-12 12:00
1573584492435.0,1.6645205,2.804769,8.682524,2019-11-12 12:48:12.435000-06:00,2019-11-12 12:00
1573584492456.0,1.6501477,2.7808142000000005,8.526817999999999,2019-11-12 12:48:12.456000-06:00,2019-11-12 12:00
1573584492476.0,1.3794587,2.6562493,8.402253,2019-11-12 12:48:12.476000-06:00,2019-11-12 12:00
1573584492496.0,1.0105549,2.5268933999999996,8.5651455,2019-11-12 12:48:12.496000-06:00,2019-11-12 12:00
1573584492516.0,0.8740127000000001,2.4023285,9.1065235,2019-11-12 12:48:12.516000-06:00,2019-11-12 12:00
1573584492536.0,0.9626453000000001,2.4406562000000003,9.705394,2019-11-12 12:48:12.536000-06:00,2019-11-12 12:00
1573584492557.0,0.7566341,2.4119105,10.064715,2019-11-12 12:48:12.557000-06:00,2019-11-12 12:00
1573584492577.0,0.780589,2.4526334,10.203653,2019-11-12 12:48:12.577000-06:00,2019-11-12 12:00
1573584492597.0,0.9889957,2.5700119,10.033574,2019-11-12 12:48:12.597000-06:00,2019-11-12 12:00
1573584492617.0,1.3291534999999999,2.5077295,9.770071000000002,2019-11-12 12:48:12.617000-06:00,2019-11-12 12:00
1573584492637.0,1.6214019,2.5029387,9.573642,2019-11-12 12:48:12.637000-06:00,2019-11-12 12:00
1573584492656.0,1.7387805,2.5340797999999998,9.451473,2019-11-12 12:48:12.656000-06:00,2019-11-12 12:00
1573584492677.0,1.9064638999999999,2.529289,9.415541000000001,2019-11-12 12:48:12.677000-06:00,2019-11-12 12:00
1573584492698.0,1.951978,2.4406562000000003,9.329303,2019-11-12 12:48:12.698000-06:00,2019-11-12 12:00
1573584492718.0,1.8513677,2.4382607999999997,9.302953,2019-11-12 12:48:12.718000-06:00,2019-11-12 12:00
1573584492738.0,1.8034582,2.4286787999999997,9.240671,2019-11-12 12:48:12.738000-06:00,2019-11-12 12:00
1573584492758.0,1.877718,2.450238,9.305349,2019-11-12 12:48:12.758000-06:00,2019-11-12 12:00
1573584492778.0,1.9759328,2.4310741,9.468241,2019-11-12 12:48:12.778000-06:00,2019-11-12 12:00
1573584492798.0,2.052588,2.4382607999999997,9.564060000000001,2019-11-12 12:48:12.798000-06:00,2019-11-12 12:00
1573584492818.0,1.9831192,2.349628,9.4897995,2019-11-12 12:48:12.818000-06:00,2019-11-12 12:00
1573584492838.0,1.9783282,2.2825544,9.487405,2019-11-12 12:48:12.838000-06:00,2019-11-12 12:00
1573584492858.0,1.9831192,2.2322495,9.456264,2019-11-12 12:48:12.858000-06:00,2019-11-12 12:00
1573584492878.0,2.0501926,2.2130857,9.393981,2019-11-12 12:48:12.878000-06:00,2019-11-12 12:00
1573584492898.0,2.2298536,2.3065095,9.473032,2019-11-12 12:48:12.898000-06:00,2019-11-12 12:00
1573584492918.0,2.4741923999999997,2.3903513,9.496986999999999,2019-11-12 12:48:12.918000-06:00,2019-11-12 12:00
1573584492939.0,2.3903506,2.455029,9.458658999999999,2019-11-12 12:48:12.939000-06:00,2019-11-12 12:00
1573584492959.0,2.2490172000000004,2.450238,9.281394,2019-11-12 12:48:12.959000-06:00,2019-11-12 12:00
1573584492979.0,2.2945312999999996,2.4957523,9.250253,2019-11-12 12:48:12.979000-06:00,2019-11-12 12:00
1573584492999.0,2.2801584999999998,2.5460572,9.238275,2019-11-12 12:48:12.999000-06:00,2019-11-12 12:00
1573584493019.0,2.1196616,2.5580347000000003,9.128083,2019-11-12 12:48:13.019000-06:00,2019-11-12 12:00
1573584493039.0,1.951978,2.5173116,9.063405,2019-11-12 12:48:13.039000-06:00,2019-11-12 12:00
1573584493059.0,1.9855148999999999,2.5029387,9.173597000000001,2019-11-12 12:48:13.059000-06:00,2019-11-12 12:00
1573584493079.0,2.0262377000000003,2.5221023999999996,9.28858,2019-11-12 12:48:13.079000-06:00,2019-11-12 12:00
1573584493099.0,1.7890853999999998,2.4765884999999996,9.252647999999999,2019-11-12 12:48:13.099000-06:00,2019-11-12 12:00
1573584493120.0,1.7699218,2.4526334,9.183178999999999,2019-11-12 12:48:13.120000-06:00,2019-11-12 12:00
1573584493140.0,1.7435713,2.3831646,9.132874000000001,2019-11-12 12:48:13.140000-06:00,2019-11-12 12:00
1573584493160.0,1.7866900000000001,2.354419,9.175993,2019-11-12 12:48:13.160000-06:00,2019-11-12 12:00
1573584493180.0,1.9328140999999999,2.3711872000000005,9.238275,2019-11-12 12:48:13.180000-06:00,2019-11-12 12:00
1573584493200.0,1.882509,2.2777636,9.346072,2019-11-12 12:48:13.200000-06:00,2019-11-12 12:00
1573584493220.0,2.1795485,2.4143060000000003,9.257439,2019-11-12 12:48:13.220000-06:00,2019-11-12 12:00
1573584493241.0,2.383164,2.3879557,9.108919,2019-11-12 12:48:13.241000-06:00,2019-11-12 12:00
1573584493260.0,2.2969267,2.354419,9.147247,2019-11-12 12:48:13.260000-06:00,2019-11-12 12:00
1573584493280.0,2.0837293000000003,2.3424416,9.120897,2019-11-12 12:48:13.280000-06:00,2019-11-12 12:00
1573584493300.0,2.1052885,2.3328597999999996,8.943631,2019-11-12 12:48:13.300000-06:00,2019-11-12 12:00
1573584493321.0,2.3544183,2.3520234,8.931654,2019-11-12 12:48:13.321000-06:00,2019-11-12 12:00
1573584493341.0,2.6706216,2.3831646,9.020287,2019-11-12 12:48:13.341000-06:00,2019-11-12 12:00
1573584493361.0,2.7400903999999997,2.3879557,8.938839999999999,2019-11-12 12:48:13.361000-06:00,2019-11-12 12:00
1573584493381.0,2.6802034,2.35921,9.140061,2019-11-12 12:48:13.381000-06:00,2019-11-12 12:00
1573584493401.0,2.7065537,2.3520234,9.113710000000001,2019-11-12 12:48:13.401000-06:00,2019-11-12 12:00
1573584493422.0,2.5101244,2.325673,9.0274725,2019-11-12 12:48:13.422000-06:00,2019-11-12 12:00
1573584493442.0,2.4190962000000003,2.3041139,9.125688,2019-11-12 12:48:13.442000-06:00,2019-11-12 12:00
1573584493461.0,2.5508474999999997,2.3089049999999998,9.159224,2019-11-12 12:48:13.461000-06:00,2019-11-12 12:00
1573584493482.0,2.6251075,2.3472326,9.149643,2019-11-12 12:48:13.482000-06:00,2019-11-12 12:00
1573584493503.0,2.4646103,2.2681818,9.072987,2019-11-12 12:48:13.503000-06:00,2019-11-12 12:00
1573584493523.0,2.4526331000000003,2.2585998,9.195157,2019-11-12 12:48:13.523000-06:00,2019-11-12 12:00
1573584493543.0,2.2969267,2.2418315,9.259835,2019-11-12 12:48:13.543000-06:00,2019-11-12 12:00
1573584493563.0,2.2657855,2.1987127999999996,9.226298,2019-11-12 12:48:13.563000-06:00,2019-11-12 12:00
1573584493583.0,2.5053334,2.179549,9.281394,2019-11-12 12:48:13.583000-06:00,2019-11-12 12:00
1573584493603.0,2.6107345,2.1867354,9.480219,2019-11-12 12:48:13.603000-06:00,2019-11-12 12:00
1573584493623.0,2.608339,2.1651762000000003,9.504173,2019-11-12 12:48:13.623000-06:00,2019-11-12 12:00
1573584493644.0,2.7305086,2.1460122999999998,9.252647999999999,2019-11-12 12:48:13.644000-06:00,2019-11-12 12:00
1573584493663.0,2.8119547000000003,2.1819444,9.089756,2019-11-12 12:48:13.663000-06:00,2019-11-12 12:00
1573584493683.0,2.6275032000000005,2.2106903,8.936444999999999,2019-11-12 12:48:13.683000-06:00,2019-11-12 12:00
1573584493703.0,2.3951416,2.2753682,8.847812,2019-11-12 12:48:13.703000-06:00,2019-11-12 12:00
1573584493724.0,2.3065088,2.3424416,9.156829,2019-11-12 12:48:13.724000-06:00,2019-11-12 12:00
1573584493744.0,2.256204,2.340046,9.544896000000001,2019-11-12 12:48:13.744000-06:00,2019-11-12 12:00
1573584493764.0,2.4741923999999997,2.2801592,9.786839500000001,2019-11-12 12:48:13.764000-06:00,2019-11-12 12:00
1573584493784.0,2.61313,2.0501933,9.750908,2019-11-12 12:48:13.784000-06:00,2019-11-12 12:00
1573584493804.0,2.502938,1.7315946,8.943631,2019-11-12 12:48:13.804000-06:00,2019-11-12 12:00
1573584493824.0,2.6514577999999998,1.7675266,7.95909,2019-11-12 12:48:13.824000-06:00,2019-11-12 12:00
1573584493844.0,2.7448813999999997,1.9352102,6.9529886,2019-11-12 12:48:13.844000-06:00,2019-11-12 12:00
1573584493864.0,2.9413106,2.074148,6.737395299999999,2019-11-12 12:48:13.864000-06:00,2019-11-12 12:00
1573584493884.0,1.6597294999999999,2.3424416,8.792716,2019-11-12 12:48:13.884000-06:00,2019-11-12 12:00
1573584493904.0,1.3818540000000001,2.8862152,10.28989,2019-11-12 12:48:13.904000-06:00,2019-11-12 12:00
1573584493924.0,1.5543286,2.8886107999999995,11.3582735,2019-11-12 12:48:13.924000-06:00,2019-11-12 12:00
1573584493944.0,1.5327693,2.9940116000000003,11.933189,2019-11-12 12:48:13.944000-06:00,2019-11-12 12:00
1573584493966.0,1.9543736,3.2599096000000003,11.298387,2019-11-12 12:48:13.966000-06:00,2019-11-12 12:00
1573584493986.0,2.1795485,2.960475,10.536625,2019-11-12 12:48:13.986000-06:00,2019-11-12 12:00
1573584494006.0,2.2418308,2.7424865,9.803608,2019-11-12 12:48:14.006000-06:00,2019-11-12 12:00
1573584494026.0,2.2801584999999998,2.5891757,9.420332,2019-11-12 12:48:14.026000-06:00,2019-11-12 12:00
1573584494045.0,1.9495826,2.740091,9.072987,2019-11-12 12:48:14.045000-06:00,2019-11-12 12:00
1573584494066.0,1.7579441000000002,2.754464,8.787925,2019-11-12 12:48:14.066000-06:00,2019-11-12 12:00
1573584494086.0,1.4129953000000002,2.6131307999999995,8.735225,2019-11-12 12:48:14.086000-06:00,2019-11-12 12:00
1573584494106.0,1.6860799,2.3113002999999996,8.833439,2019-11-12 12:48:14.106000-06:00,2019-11-12 12:00
1573584494126.0,1.5710969,2.364001,8.919677,2019-11-12 12:48:14.126000-06:00,2019-11-12 12:00
1573584494147.0,1.0800238000000002,2.804769,8.246547,2019-11-12 12:48:14.147000-06:00,2019-11-12 12:00
1573584494166.0,0.7518431999999999,2.895797,7.9519033,2019-11-12 12:48:14.166000-06:00,2019-11-12 12:00
1573584494186.0,0.97462285,2.80956,8.098027,2019-11-12 12:48:14.186000-06:00,2019-11-12 12:00
1573584494206.0,0.95066786,3.135345,8.210614999999999,2019-11-12 12:48:14.206000-06:00,2019-11-12 12:00
1573584494226.0,0.8835945,3.3677065,8.5364,2019-11-12 12:48:14.226000-06:00,2019-11-12 12:00
1573584494247.0,1.3483174,3.3988476000000003,8.941236,2019-11-12 12:48:14.247000-06:00,2019-11-12 12:00
1573584494267.0,1.4082043,3.4587345000000003,9.326908,2019-11-12 12:48:14.267000-06:00,2019-11-12 12:00
1573584494287.0,1.2333344,3.480294,9.28858,2019-11-12 12:48:14.287000-06:00,2019-11-12 12:00
1573584494307.0,1.1590745,3.4587345000000003,9.396377000000001,2019-11-12 12:48:14.307000-06:00,2019-11-12 12:00
1573584494327.0,1.2357299,3.4443617,9.338885000000001,2019-11-12 12:48:14.327000-06:00,2019-11-12 12:00
1573584494348.0,1.3507129,3.4323843000000003,9.267021000000002,2019-11-12 12:48:14.348000-06:00,2019-11-12 12:00
1573584494368.0,1.4872551999999999,3.4228023999999997,9.322117,2019-11-12 12:48:14.368000-06:00,2019-11-12 12:00
1573584494387.0,1.460905,3.4036383999999997,9.247857000000002,2019-11-12 12:48:14.387000-06:00,2019-11-12 12:00
1573584494408.0,1.4297636999999999,3.3677065,9.056219,2019-11-12 12:48:14.408000-06:00,2019-11-12 12:00
1573584494428.0,1.666916,3.3437513999999995,9.025078,2019-11-12 12:48:14.428000-06:00,2019-11-12 12:00
1573584494448.0,1.7555487,3.2790737,9.010705,2019-11-12 12:48:14.448000-06:00,2019-11-12 12:00
1573584494468.0,1.8154359,3.2670963,9.077778,2019-11-12 12:48:14.468000-06:00,2019-11-12 12:00
1573584494488.0,1.882509,3.207209,9.025078,2019-11-12 12:48:14.488000-06:00,2019-11-12 12:00
1573584494508.0,1.616611,3.0874354999999998,8.756783500000001,2019-11-12 12:48:14.508000-06:00,2019-11-12 12:00
1573584494528.0,1.3938315000000001,3.0754580000000002,8.622637,2019-11-12 12:48:14.528000-06:00,2019-11-12 12:00
1573584494549.0,1.3866451000000002,3.070667,8.696897,2019-11-12 12:48:14.549000-06:00,2019-11-12 12:00
1573584494569.0,1.1566792,3.2527235,8.955608999999999,2019-11-12 12:48:14.569000-06:00,2019-11-12 12:00
1573584494589.0,0.9937866,3.4036383999999997,8.941236,2019-11-12 12:48:14.589000-06:00,2019-11-12 12:00
1573584494609.0,1.0536735000000002,3.4491527000000004,8.9148855,2019-11-12 12:48:14.609000-06:00,2019-11-12 12:00
1573584494629.0,0.99139106,3.5305989,9.130479,2019-11-12 12:48:14.629000-06:00,2019-11-12 12:00
1573584494649.0,0.85245323,3.6407910000000006,9.13527,2019-11-12 12:48:14.649000-06:00,2019-11-12 12:00
1573584494669.0,0.7973573,3.6312089999999997,9.099337,2019-11-12 12:48:14.669000-06:00,2019-11-12 12:00
1573584494689.0,0.63206923,3.6695367999999995,8.967586,2019-11-12 12:48:14.689000-06:00,2019-11-12 12:00
1573584494709.0,0.49792250000000005,3.5617402,8.823857,2019-11-12 12:48:14.709000-06:00,2019-11-12 12:00
1573584494729.0,0.39970788,3.6431866000000004,9.113710000000001,2019-11-12 12:48:14.729000-06:00,2019-11-12 12:00
1573584494750.0,0.22483793,3.6383955,9.243066,2019-11-12 12:48:14.750000-06:00,2019-11-12 12:00
1573584494770.0,0.37096209999999996,3.5569491,9.417936,2019-11-12 12:48:14.770000-06:00,2019-11-12 12:00
1573584494790.0,0.605719,3.5880904,9.655087,2019-11-12 12:48:14.790000-06:00,2019-11-12 12:00
1573584494810.0,0.50031793,3.4778983999999995,9.475427999999999,2019-11-12 12:48:14.810000-06:00,2019-11-12 12:00
1573584494830.0,0.5386456000000001,3.3772879999999996,9.247857000000002,2019-11-12 12:48:14.830000-06:00,2019-11-12 12:00
1573584494851.0,0.6608149999999999,3.2575145,9.240671,2019-11-12 12:48:14.851000-06:00,2019-11-12 12:00
1573584494871.0,0.830894,3.2790737,9.343676,2019-11-12 12:48:14.871000-06:00,2019-11-12 12:00
1573584494891.0,0.9937866,3.2096047000000003,9.2981615,2019-11-12 12:48:14.891000-06:00,2019-11-12 12:00
1573584494911.0,1.0393006999999999,3.1233675,9.094547,2019-11-12 12:48:14.911000-06:00,2019-11-12 12:00
1573584494931.0,0.97222733,3.0922263,8.816671000000001,2019-11-12 12:48:14.931000-06:00,2019-11-12 12:00
1573584494952.0,0.98180914,3.0946217000000003,8.514841,2019-11-12 12:48:14.952000-06:00,2019-11-12 12:00
1573584494972.0,0.9650408000000001,3.140136,8.51005,2019-11-12 12:48:14.972000-06:00,2019-11-12 12:00
1573584494992.0,0.85724425,3.245537,8.73762,2019-11-12 12:48:14.992000-06:00,2019-11-12 12:00
1573584495012.0,0.77100706,3.2527235,8.969982,2019-11-12 12:48:15.012000-06:00,2019-11-12 12:00
1573584495032.0,0.7734025999999999,3.3174012000000004,9.164015,2019-11-12 12:48:15.032000-06:00,2019-11-12 12:00
1573584495052.0,0.8404759,3.3916612,9.290975999999999,2019-11-12 12:48:15.052000-06:00,2019-11-12 12:00
1573584495072.0,0.8237075999999999,3.480294,9.283789,2019-11-12 12:48:15.072000-06:00,2019-11-12 12:00
1573584495092.0,0.7829844,3.4874802000000003,9.032264,2019-11-12 12:48:15.092000-06:00,2019-11-12 12:00
1573584495112.0,0.84526694,3.4156160000000004,8.694502,2019-11-12 12:48:15.112000-06:00,2019-11-12 12:00
1573584495132.0,0.7542386999999999,3.3150058,8.421417,2019-11-12 12:48:15.132000-06:00,2019-11-12 12:00
1573584495153.0,0.7135155,3.240746,8.423813,2019-11-12 12:48:15.153000-06:00,2019-11-12 12:00
1573584495173.0,0.7853799,3.2814690000000004,8.75918,2019-11-12 12:48:15.173000-06:00,2019-11-12 12:00
1573584495193.0,0.7135155,3.3197968,8.814276,2019-11-12 12:48:15.193000-06:00,2019-11-12 12:00
1573584495213.0,0.7063291,3.3006330000000004,8.577123,2019-11-12 12:48:15.213000-06:00,2019-11-12 12:00
1573584495233.0,0.90754926,3.3413559999999998,8.419022,2019-11-12 12:48:15.233000-06:00,2019-11-12 12:00
1573584495253.0,1.0728375,3.2599096000000003,8.042931,2019-11-12 12:48:15.253000-06:00,2019-11-12 12:00
1573584495273.0,1.101583,3.0610852000000004,7.4680165999999994,2019-11-12 12:48:15.273000-06:00,2019-11-12 12:00
1573584495293.0,1.3051988,2.8981924,7.3482428,2019-11-12 12:48:15.293000-06:00,2019-11-12 12:00
1573584495313.0,1.290826,2.9964072999999996,8.502863,2019-11-12 12:48:15.313000-06:00,2019-11-12 12:00
1573584495334.0,0.7494478,3.200023,10.162930000000001,2019-11-12 12:48:15.334000-06:00,2019-11-12 12:00
1573584495354.0,0.33742544,3.4060339999999996,11.640939999999999,2019-11-12 12:48:15.354000-06:00,2019-11-12 12:00
1573584495374.0,0.12901878,3.6048586000000005,12.51529,2019-11-12 12:48:15.374000-06:00,2019-11-12 12:00
1573584495394.0,0.20806956,3.5952767999999997,12.29251,2019-11-12 12:48:15.394000-06:00,2019-11-12 12:00
1573584495414.0,0.6967472,3.2982376,10.709099,2019-11-12 12:48:15.414000-06:00,2019-11-12 12:00
1573584495434.0,1.0129504,2.905379,8.792716,2019-11-12 12:48:15.434000-06:00,2019-11-12 12:00
1573584495455.0,1.1135606000000002,2.8383057000000003,7.856084,2019-11-12 12:48:15.455000-06:00,2019-11-12 12:00
1573584495475.0,0.9171313,2.8910062,7.448852499999999,2019-11-12 12:48:15.475000-06:00,2019-11-12 12:00
1573584495495.0,0.6512331,3.0395257,7.6548643,2019-11-12 12:48:15.495000-06:00,2019-11-12 12:00
1573584495515.0,0.63686025,3.1640906,8.184265,2019-11-12 12:48:15.515000-06:00,2019-11-12 12:00
1573584495535.0,0.63686025,3.245537,8.450163,2019-11-12 12:48:15.535000-06:00,2019-11-12 12:00
1573584495555.0,0.49792250000000005,3.2024182999999997,8.514841,2019-11-12 12:48:15.555000-06:00,2019-11-12 12:00
1573584495575.0,0.36856666,3.2383504000000003,8.610660000000001,2019-11-12 12:48:15.575000-06:00,2019-11-12 12:00
1573584495596.0,0.15297356,3.2239777999999997,8.560355,2019-11-12 12:48:15.596000-06:00,2019-11-12 12:00
1573584495616.0,-0.026687294,3.2742827,8.613055000000001,2019-11-12 12:48:15.616000-06:00,2019-11-12 12:00
1573584495636.0,-0.10334261,3.4132203999999997,8.862185,2019-11-12 12:48:15.636000-06:00,2019-11-12 12:00
1573584495655.0,-0.08657427,3.516226,9.156829,2019-11-12 12:48:15.655000-06:00,2019-11-12 12:00
1573584495676.0,0.023617715,3.6719322,9.456264,2019-11-12 12:48:15.676000-06:00,2019-11-12 12:00
1573584495696.0,0.26316556,3.8204517,9.820376,2019-11-12 12:48:15.696000-06:00,2019-11-12 12:00
1573584495716.0,0.6560241,4.031254,10.309054,2019-11-12 12:48:15.716000-06:00,2019-11-12 12:00
1573584495737.0,0.8668261999999999,4.1127,10.186885,2019-11-12 12:48:15.737000-06:00,2019-11-12 12:00
1573584495756.0,0.8859899999999999,4.031254,9.607178999999999,2019-11-12 12:48:15.756000-06:00,2019-11-12 12:00
1573584495776.0,0.835685,3.875548,9.228693,2019-11-12 12:48:15.776000-06:00,2019-11-12 12:00
1573584495796.0,0.6129055,3.6575592000000006,9.003518,2019-11-12 12:48:15.796000-06:00,2019-11-12 12:00
1573584495816.0,0.40449885,3.4060339999999996,8.965191,2019-11-12 12:48:15.816000-06:00,2019-11-12 12:00
1573584495836.0,0.17932385,3.1832545,9.154433000000001,2019-11-12 12:48:15.836000-06:00,2019-11-12 12:00
1573584495857.0,-0.15364768,2.9389157000000004,9.269416,2019-11-12 12:48:15.857000-06:00,2019-11-12 12:00
1573584495877.0,-0.35486788,2.7376955,9.341281,2019-11-12 12:48:15.877000-06:00,2019-11-12 12:00
1573584495897.0,-0.3931955,2.5987577,9.245461,2019-11-12 12:48:15.897000-06:00,2019-11-12 12:00
1573584495917.0,-0.33570403,2.469402,8.790321,2019-11-12 12:48:15.917000-06:00,2019-11-12 12:00
1573584495937.0,-0.5081785,2.2705772,8.416625999999999,2019-11-12 12:48:15.937000-06:00,2019-11-12 12:00
1573584495958.0,-0.7716811,2.2082946,8.718456,2019-11-12 12:48:15.958000-06:00,2019-11-12 12:00
1573584495978.0,-0.88905954,2.4789836,9.140061,2019-11-12 12:48:15.978000-06:00,2019-11-12 12:00
1573584495998.0,-0.8603139000000001,2.629899,9.214319999999999,2019-11-12 12:48:15.998000-06:00,2019-11-12 12:00
1573584496018.0,-1.0447657,2.5484526,8.845417,2019-11-12 12:48:16.018000-06:00,2019-11-12 12:00
1573584496038.0,-1.0279973,2.4190970000000003,8.725643,2019-11-12 12:48:16.038000-06:00,2019-11-12 12:00
1573584496058.0,-0.956133,2.4622154,9.396377000000001,2019-11-12 12:48:16.058000-06:00,2019-11-12 12:00
1573584496078.0,-0.9489466000000001,2.364001,10.150953,2019-11-12 12:48:16.078000-06:00,2019-11-12 12:00
1573584496098.0,-1.0112290000000002,2.0454023,10.919901,2019-11-12 12:48:16.098000-06:00,2019-11-12 12:00
1573584496119.0,-0.9489466000000001,1.7411763999999998,12.376352,2019-11-12 12:48:16.119000-06:00,2019-11-12 12:00
1573584496139.0,-0.8722912,1.7459673999999998,14.122656,2019-11-12 12:48:16.139000-06:00,2019-11-12 12:00
1573584496159.0,-1.0184155000000001,1.7507583999999998,14.927537,2019-11-12 12:48:16.159000-06:00,2019-11-12 12:00
1573584496179.0,-1.1741215,1.3722727,14.060373,2019-11-12 12:48:16.179000-06:00,2019-11-12 12:00
1573584496199.0,-1.0327883,1.0416967,12.196691,2019-11-12 12:48:16.199000-06:00,2019-11-12 12:00
1573584496219.0,-1.0256019,1.0584651000000003,10.876783,2019-11-12 12:48:16.219000-06:00,2019-11-12 12:00
1573584496240.0,-1.2196356000000002,1.2381258999999998,10.076692999999999,2019-11-12 12:48:16.240000-06:00,2019-11-12 12:00
1573584496259.0,-1.5262568,1.3028038999999998,9.5688505,2019-11-12 12:48:16.259000-06:00,2019-11-12 12:00
1573584496279.0,-1.8712057,1.4441371,9.837145,2019-11-12 12:48:16.279000-06:00,2019-11-12 12:00
1573584496300.0,-2.1011717,1.5399562,10.517461,2019-11-12 12:48:16.300000-06:00,2019-11-12 12:00
1573584496320.0,-2.5012167,1.3674818000000002,10.943856,2019-11-12 12:48:16.320000-06:00,2019-11-12 12:00
1573584496340.0,-2.8006516,1.1614707,10.986975,2019-11-12 12:48:16.340000-06:00,2019-11-12 12:00
1573584496360.0,-2.8773067,1.0608606000000003,10.855222999999999,2019-11-12 12:48:16.360000-06:00,2019-11-12 12:00
1573584496380.0,-2.7910695,0.90755,10.328217500000001,2019-11-12 12:48:16.380000-06:00,2019-11-12 12:00
1573584496400.0,-2.6042223,0.67758405,9.286185000000001,2019-11-12 12:48:16.400000-06:00,2019-11-12 12:00
1573584496420.0,-2.4053974,0.5841603,8.450163,2019-11-12 12:48:16.420000-06:00,2019-11-12 12:00
1573584496440.0,-2.443725,0.6081151,7.9183674,2019-11-12 12:48:16.440000-06:00,2019-11-12 12:00
1573584496460.0,-2.4772618,0.67758405,7.705168700000001,2019-11-12 12:48:16.460000-06:00,2019-11-12 12:00
1573584496480.0,-2.5467307999999997,0.8476629000000001,7.856084,2019-11-12 12:48:16.480000-06:00,2019-11-12 12:00
1573584496501.0,-2.6712954,0.93629575,8.191450999999999,2019-11-12 12:48:16.501000-06:00,2019-11-12 12:00
1573584496521.0,-2.7958605,1.1399113,8.51005,2019-11-12 12:48:16.521000-06:00,2019-11-12 12:00
1573584496541.0,-2.7311826,1.2189621000000002,8.878953,2019-11-12 12:48:16.541000-06:00,2019-11-12 12:00
1573584496556.0,-2.693359,1.2652373,9.113396,2019-11-12 12:48:16.556000-06:00,2019-11-12 12:00
1573584496606.0,-2.2178335,1.563684,10.3685055,2019-11-12 12:48:16.606000-06:00,2019-11-12 12:00
1573584496806.0,0.1942961,2.1540049999999997,8.066345,2019-11-12 12:48:16.806000-06:00,2019-11-12 12:00
1573584496856.0,0.25904953,2.3917344,10.448774,2019-11-12 12:48:16.856000-06:00,2019-11-12 12:00
1573584496906.0,-0.07599482,2.470904,13.256305,2019-11-12 12:48:16.906000-06:00,2019-11-12 12:00
1573584496956.0,-0.36076036,2.2182176,11.436596,2019-11-12 12:48:16.956000-06:00,2019-11-12 12:00
1573584497006.0,0.59608895,1.3784208,8.397212,2019-11-12 12:48:17.006000-06:00,2019-11-12 12:00
1573584497056.0,1.3983831,1.3644667,9.110942999999999,2019-11-12 12:48:17.056000-06:00,2019-11-12 12:00
1573584497106.0,0.312302,1.9471338,8.736132000000001,2019-11-12 12:48:17.106000-06:00,2019-11-12 12:00
1573584497156.0,-0.8029310000000001,2.0399580000000004,7.638234,2019-11-12 12:48:17.156000-06:00,2019-11-12 12:00
1573584497206.0,-1.0362474,2.1802013,8.494294,2019-11-12 12:48:17.206000-06:00,2019-11-12 12:00
1573584497256.0,-0.9206194999999999,2.3768306,9.304811,2019-11-12 12:48:17.256000-06:00,2019-11-12 12:00
1573584497306.0,-0.82338786,2.5763477999999997,10.191550999999999,2019-11-12 12:48:17.306000-06:00,2019-11-12 12:00
1573584497356.0,-0.44935966,2.6272566000000004,10.410641,2019-11-12 12:48:17.356000-06:00,2019-11-12 12:00
1573584497406.0,-0.025197037000000002,2.2517270000000003,9.52195,2019-11-12 12:48:17.406000-06:00,2019-11-12 12:00
1573584497456.0,-0.016100846000000002,1.7755916,9.671864999999999,2019-11-12 12:48:17.456000-06:00,2019-11-12 12:00
1573584497506.0,-0.022865168999999998,1.3308241000000003,9.722337,2019-11-12 12:48:17.506000-06:00,2019-11-12 12:00
1573584497556.0,0.14280342,0.948364,8.786706,2019-11-12 12:48:17.556000-06:00,2019-11-12 12:00
1573584497606.0,0.037228186,1.0377024,9.156188,2019-11-12 12:48:17.606000-06:00,2019-11-12 12:00
1573584497656.0,-0.16005942,1.1145704,9.283743,2019-11-12 12:48:17.656000-06:00,2019-11-12 12:00
1573584497706.0,-0.49917597,1.0835433,7.5679917,2019-11-12 12:48:17.706000-06:00,2019-11-12 12:00
1573584497756.0,-1.2401626000000001,1.1403805,7.284605,2019-11-12 12:48:17.756000-06:00,2019-11-12 12:00
1573584497806.0,-2.255016,1.2241563999999998,10.1529455,2019-11-12 12:48:17.806000-06:00,2019-11-12 12:00
1573584497857.0,-3.51,1.3839395,12.862583,2019-11-12 12:48:17.857000-06:00,2019-11-12 12:00
1573584497906.0,-4.384194,1.3666463,11.999514,2019-11-12 12:48:17.906000-06:00,2019-11-12 12:00
1573584497956.0,-4.154093,1.3076124,10.316245,2019-11-12 12:48:17.956000-06:00,2019-11-12 12:00
1573584498006.0,-3.8969016000000005,1.7514886000000003,10.654957000000001,2019-11-12 12:48:18.006000-06:00,2019-11-12 12:00
1573584498056.0,-3.4234412000000005,1.107302,11.831531,2019-11-12 12:48:18.056000-06:00,2019-11-12 12:00
1573584498106.0,-2.7616484,0.53433734,11.913735,2019-11-12 12:48:18.106000-06:00,2019-11-12 12:00
1573584498156.0,-0.60247386,0.17455283,10.016092,2019-11-12 12:48:18.156000-06:00,2019-11-12 12:00
1573584498206.0,0.0930866,-0.55765015,9.286883,2019-11-12 12:48:18.206000-06:00,2019-11-12 12:00
1573584498256.0,0.23559429999999998,-0.24693969,8.568951,2019-11-12 12:48:18.256000-06:00,2019-11-12 12:00
1573584498306.0,-0.11858603,0.80137223,7.7360754,2019-11-12 12:48:18.306000-06:00,2019-11-12 12:00
1573584498356.0,0.69127107,1.4050272,7.875833999999999,2019-11-12 12:48:18.356000-06:00,2019-11-12 12:00
1573584498406.0,2.265417,2.033589,8.882813,2019-11-12 12:48:18.406000-06:00,2019-11-12 12:00
1573584498456.0,1.3285978,1.8602130000000001,8.427495,2019-11-12 12:48:18.456000-06:00,2019-11-12 12:00
1573584498506.0,1.2948861,3.1556472999999996,9.212519,2019-11-12 12:48:18.506000-06:00,2019-11-12 12:00
1573584498556.0,1.5287788,6.4897356,12.637358,2019-11-12 12:48:18.556000-06:00,2019-11-12 12:00
1573584498606.0,-1.8264547999999998,7.2597823,5.544549,2019-11-12 12:48:18.606000-06:00,2019-11-12 12:00
1573584498656.0,-2.3982644,8.01346,7.515383,2019-11-12 12:48:18.656000-06:00,2019-11-12 12:00
1573584498706.0,-0.9583318000000001,5.4794617,8.713863,2019-11-12 12:48:18.706000-06:00,2019-11-12 12:00
1573584498756.0,-0.104070544,5.595324,6.224908,2019-11-12 12:48:18.756000-06:00,2019-11-12 12:00
1573584498806.0,-0.17592528,6.0207467,6.857989999999999,2019-11-12 12:48:18.806000-06:00,2019-11-12 12:00
1573584498856.0,-0.35396690000000003,5.860922,6.8692155,2019-11-12 12:48:18.856000-06:00,2019-11-12 12:00
1573584498906.0,-0.5380415,6.149168,6.5775833,2019-11-12 12:48:18.906000-06:00,2019-11-12 12:00
1573584498956.0,-0.9444056999999999,4.6842775,6.358621,2019-11-12 12:48:18.956000-06:00,2019-11-12 12:00
1573584499006.0,-2.5286825,6.486829,5.301783,2019-11-12 12:48:19.006000-06:00,2019-11-12 12:00
1573584499056.0,-2.7151833,10.843419,4.3547405999999995,2019-11-12 12:48:19.056000-06:00,2019-11-12 12:00
1573584499106.0,-2.2494514,8.985648,4.390029,2019-11-12 12:48:19.106000-06:00,2019-11-12 12:00
1573584499156.0,-1.6453071,7.0380054,4.3971934,2019-11-12 12:48:19.156000-06:00,2019-11-12 12:00
1573584499384.0,-3.4570123999999995,7.8712063,5.38395,2019-11-12 12:48:19.384000-06:00,2019-11-12 12:00
1573584499405.0,-3.5025267999999996,7.931093,5.4653964,2019-11-12 12:48:19.405000-06:00,2019-11-12 12:00
1573584499425.0,-3.5121086000000004,7.7586184000000005,5.4055095,2019-11-12 12:48:19.425000-06:00,2019-11-12 12:00
1573584499446.0,-3.2462106,7.26515,5.0006733,2019-11-12 12:48:19.446000-06:00,2019-11-12 12:00
1573584499465.0,-3.4067074999999996,6.7620993,4.332335,2019-11-12 12:48:19.465000-06:00,2019-11-12 12:00
1573584499485.0,-3.6270914,7.123816499999999,4.6581206,2019-11-12 12:48:19.485000-06:00,2019-11-12 12:00
1573584499505.0,-3.629487,7.0830936,5.165961299999999,2019-11-12 12:48:19.505000-06:00,2019-11-12 12:00
1573584499525.0,-3.6151142,6.8076134,5.6546392,2019-11-12 12:48:19.525000-06:00,2019-11-12 12:00
1573584499546.0,-3.6438599000000003,7.039975,6.1313396,2019-11-12 12:48:19.546000-06:00,2019-11-12 12:00
1573584499566.0,-3.524086,7.2244267,6.104989499999999,2019-11-12 12:48:19.566000-06:00,2019-11-12 12:00
1573584499586.0,-3.2989108999999996,7.1621447,6.0163565000000006,2019-11-12 12:48:19.586000-06:00,2019-11-12 12:00
1573584499606.0,-3.2653742,6.8627095,6.112176,2019-11-12 12:48:19.606000-06:00,2019-11-12 12:00
1573584499626.0,-3.138414,6.5968113,6.033125,2019-11-12 12:48:19.626000-06:00,2019-11-12 12:00
1573584499646.0,-2.9922897999999996,6.7117944000000005,5.889395700000001,2019-11-12 12:48:19.646000-06:00,2019-11-12 12:00
1573584499666.0,-2.91803,6.8627095,5.9133510000000005,2019-11-12 12:48:19.666000-06:00,2019-11-12 12:00
1573584499686.0,-2.9324026,6.810009,6.148108000000001,2019-11-12 12:48:19.686000-06:00,2019-11-12 12:00
1573584499706.0,-3.0114534,6.7620993,6.205599299999999,2019-11-12 12:48:19.706000-06:00,2019-11-12 12:00
1573584499727.0,-3.1312275,6.810009,6.00917,2019-11-12 12:48:19.727000-06:00,2019-11-12 12:00
1573584499747.0,-3.2965155,6.8148,5.757645,2019-11-12 12:48:19.747000-06:00,2019-11-12 12:00
1573584499767.0,-3.4809672999999997,6.8770823000000005,5.419882299999999,2019-11-12 12:48:19.767000-06:00,2019-11-12 12:00
1573584499788.0,-3.629487,6.9297830000000005,5.2545943,2019-11-12 12:48:19.788000-06:00,2019-11-12 12:00
1573584499808.0,-3.6270914,6.903432400000001,5.2641764,2019-11-12 12:48:19.808000-06:00,2019-11-12 12:00
1573584499828.0,-3.6845830000000004,6.6614895,5.3719730000000006,2019-11-12 12:48:19.828000-06:00,2019-11-12 12:00
1573584499848.0,-3.7756112,6.7165856,5.503724,2019-11-12 12:48:19.848000-06:00,2019-11-12 12:00
1573584499868.0,-3.9217355000000005,7.102257300000001,5.4366508,2019-11-12 12:48:19.868000-06:00,2019-11-12 12:00
1573584499882.0,-3.9672494,7.4951158,5.376764,2019-11-12 12:48:19.882000-06:00,2019-11-12 12:00
1573584499902.0,-4.125351,7.856832499999999,5.482165,2019-11-12 12:48:19.902000-06:00,2019-11-12 12:00
1573584499923.0,-4.125351,8.153872,5.563611,2019-11-12 12:48:19.923000-06:00,2019-11-12 12:00
1573584499943.0,-4.060673,8.199387,5.3552045999999995,2019-11-12 12:48:19.943000-06:00,2019-11-12 12:00
1573584499963.0,-4.0774417000000005,8.084403,4.9336004,2019-11-12 12:48:19.963000-06:00,2019-11-12 12:00
1573584499982.0,-4.0630684,7.9430704,4.6293745,2019-11-12 12:48:19.982000-06:00,2019-11-12 12:00
1573584500002.0,-3.9504812000000005,7.8041325,4.5335555,2019-11-12 12:48:20.002000-06:00,2019-11-12 12:00
1573584500023.0,-3.8642440000000002,7.854438,4.461691,2019-11-12 12:48:20.023000-06:00,2019-11-12 12:00
1573584500043.0,-3.7348879999999998,7.979002,4.3994083,2019-11-12 12:48:20.043000-06:00,2019-11-12 12:00
1573584500064.0,-3.6965604,8.060449,4.272448000000001,2019-11-12 12:48:20.064000-06:00,2019-11-12 12:00
1573584500083.0,-3.6558373,8.019726,4.0784144,2019-11-12 12:48:20.083000-06:00,2019-11-12 12:00
1573584500103.0,-3.5504363,7.931093,4.2149567999999995,2019-11-12 12:48:20.103000-06:00,2019-11-12 12:00
1573584500123.0,-3.4785717000000003,7.9286976,4.626979,2019-11-12 12:48:20.123000-06:00,2019-11-12 12:00
1573584500143.0,-3.4043120000000004,8.055658,4.741962,2019-11-12 12:48:20.143000-06:00,2019-11-12 12:00
1573584500164.0,-3.289329,8.04368,4.727589,2019-11-12 12:48:20.164000-06:00,2019-11-12 12:00
1573584500184.0,-3.3468204,8.04368,4.8401765999999995,2019-11-12 12:48:20.184000-06:00,2019-11-12 12:00
1573584500204.0,-3.5025267999999996,8.328742,5.08212,2019-11-12 12:48:20.204000-06:00,2019-11-12 12:00
1573584500224.0,-3.8019614,8.714414,5.312086,2019-11-12 12:48:20.224000-06:00,2019-11-12 12:00
1573584500244.0,-3.8139385999999997,8.76951,5.446232299999999,2019-11-12 12:48:20.244000-06:00,2019-11-12 12:00
1573584500264.0,-3.6390687999999995,9.133623,5.4150915,2019-11-12 12:48:20.264000-06:00,2019-11-12 12:00
1573584500284.0,-3.358798,8.601827,5.1539845,2019-11-12 12:48:20.284000-06:00,2019-11-12 12:00
1573584500304.0,-3.5408542,7.8640194,4.811431,2019-11-12 12:48:20.304000-06:00,2019-11-12 12:00
1573584500324.0,-3.9840176,7.665195,5.089306400000001,2019-11-12 12:48:20.324000-06:00,2019-11-12 12:00
1573584500344.0,-4.3361529999999995,8.196991,5.417487,2019-11-12 12:48:20.344000-06:00,2019-11-12 12:00
1573584500366.0,-4.5924697,8.558708,6.090616000000001,2019-11-12 12:48:20.366000-06:00,2019-11-12 12:00
1573584500386.0,-4.494255,8.956358,6.1361303,2019-11-12 12:48:20.386000-06:00,2019-11-12 12:00
1573584500406.0,-3.8283117,8.946776,5.542052,2019-11-12 12:48:20.406000-06:00,2019-11-12 12:00
1573584500426.0,-3.2965155,8.297601,4.988696599999999,2019-11-12 12:48:20.426000-06:00,2019-11-12 12:00
1573584500446.0,-3.1479957,7.372946300000001,4.5024137,2019-11-12 12:48:20.446000-06:00,2019-11-12 12:00
1573584500466.0,-3.3707752,6.6830482,4.2389116,2019-11-12 12:48:20.466000-06:00,2019-11-12 12:00
1573584500486.0,-3.6965604,6.5465064,3.9897818999999997,2019-11-12 12:48:20.486000-06:00,2019-11-12 12:00
1573584500506.0,-3.8953849999999997,6.6830482,3.5777593,2019-11-12 12:48:20.506000-06:00,2019-11-12 12:00
1573584500526.0,-4.0439050000000005,6.685444,3.1633415,2019-11-12 12:48:20.526000-06:00,2019-11-12 12:00
1573584500546.0,-4.2020063,6.8124046,2.8112060000000003,2019-11-12 12:48:20.546000-06:00,2019-11-12 12:00
1573584500566.0,-4.240334,6.972901299999999,2.633941,2019-11-12 12:48:20.566000-06:00,2019-11-12 12:00
1573584500587.0,-4.264289,6.992065400000001,2.6459181,2019-11-12 12:48:20.587000-06:00,2019-11-12 12:00
1573584500607.0,-4.4175997,7.01602,2.794438,2019-11-12 12:48:20.607000-06:00,2019-11-12 12:00
1573584500627.0,-4.5373735,6.939365,3.0267994,2019-11-12 12:48:20.627000-06:00,2019-11-12 12:00
1573584500647.0,-4.690684,6.8962460000000005,3.5585957,2019-11-12 12:48:20.647000-06:00,2019-11-12 12:00
1573584500667.0,-4.7721305,6.8267774999999995,4.2987986,2019-11-12 12:48:20.667000-06:00,2019-11-12 12:00
1573584500687.0,-4.796085,6.5776477,4.6485386,2019-11-12 12:48:20.687000-06:00,2019-11-12 12:00
1573584500707.0,-4.7936893,6.584834,5.118052,2019-11-12 12:48:20.707000-06:00,2019-11-12 12:00
1573584500727.0,-4.6379833,6.6734667000000005,5.630684400000001,2019-11-12 12:48:20.727000-06:00,2019-11-12 12:00
1573584500747.0,-4.328966599999999,6.7117944000000005,5.9900064,2019-11-12 12:48:20.747000-06:00,2019-11-12 12:00
1573584500768.0,-4.017554799999999,6.656698700000001,6.2008085,2019-11-12 12:48:20.768000-06:00,2019-11-12 12:00
1573584500788.0,-3.7780068,6.651907400000001,6.263091,2019-11-12 12:48:20.788000-06:00,2019-11-12 12:00
1573584500808.0,-3.6630237,6.860314,6.0570793,2019-11-12 12:48:20.808000-06:00,2019-11-12 12:00
1573584500828.0,-3.8354980000000003,7.4040875,5.549238,2019-11-12 12:48:20.828000-06:00,2019-11-12 12:00
1573584500848.0,-4.0439050000000005,8.058053,5.4414419999999994,2019-11-12 12:48:20.848000-06:00,2019-11-12 12:00
1573584500868.0,-4.2666845,8.029307000000001,4.756335,2019-11-12 12:48:20.868000-06:00,2019-11-12 12:00
1573584500889.0,-4.225961,7.832878,4.1335106,2019-11-12 12:48:20.889000-06:00,2019-11-12 12:00
1573584500909.0,-4.2594975999999996,7.4328337,3.7334652000000004,2019-11-12 12:48:20.909000-06:00,2019-11-12 12:00
1573584500929.0,-4.2523117,7.365760000000001,3.6783695,2019-11-12 12:48:20.929000-06:00,2019-11-12 12:00
1573584500949.0,-4.0918145,7.44002,3.5681772000000005,2019-11-12 12:48:20.949000-06:00,2019-11-12 12:00
1573584500969.0,-3.4498260000000003,8.156267999999999,3.3214436000000003,2019-11-12 12:48:20.969000-06:00,2019-11-12 12:00
1573584500989.0,-2.7958605,8.970730999999999,4.195793,2019-11-12 12:48:20.989000-06:00,2019-11-12 12:00
1573584501009.0,-4.582887599999999,8.795861,4.8090353,2019-11-12 12:48:21.009000-06:00,2019-11-12 12:00
1573584501030.0,-4.506232,9.176741999999999,4.694052,2019-11-12 12:48:21.030000-06:00,2019-11-12 12:00
1573584501050.0,-4.1876335,9.804357000000001,4.385035500000001,2019-11-12 12:48:21.050000-06:00,2019-11-12 12:00
1573584501069.0,-4.3577123,10.455927,4.313171400000001,2019-11-12 12:48:21.069000-06:00,2019-11-12 12:00
1573584501089.0,-4.8080625999999995,10.300221,4.4377365,2019-11-12 12:48:21.089000-06:00,2019-11-12 12:00
1573584501109.0,-5.356627,9.876222,4.511996,2019-11-12 12:48:21.109000-06:00,2019-11-12 12:00
1573584501129.0,-5.517124,9.622301,4.2437024,2019-11-12 12:48:21.129000-06:00,2019-11-12 12:00
1573584501150.0,-5.3949546999999995,9.531272999999999,4.1646513999999994,2019-11-12 12:48:21.150000-06:00,2019-11-12 12:00
1573584501170.0,-5.2344574999999995,9.021036,4.167047,2019-11-12 12:48:21.170000-06:00,2019-11-12 12:00
1573584501190.0,-5.260808,8.204178,4.0281096,2019-11-12 12:48:21.190000-06:00,2019-11-12 12:00
1573584501210.0,-5.3614180000000005,7.605308,4.1383014,2019-11-12 12:48:21.210000-06:00,2019-11-12 12:00
1573584501230.0,-5.320695,7.2148449999999995,3.90594,2019-11-12 12:48:21.230000-06:00,2019-11-12 12:00
1573584501251.0,-5.4332824,6.8866644,3.6424375,2019-11-12 12:48:21.251000-06:00,2019-11-12 12:00
1573584501270.0,-5.541079,6.6974216,3.575364,2019-11-12 12:48:21.270000-06:00,2019-11-12 12:00
1573584501290.0,-5.502751,6.582438499999999,3.5705728999999997,2019-11-12 12:48:21.290000-06:00,2019-11-12 12:00
1573584501311.0,-5.490774,6.613579799999999,3.9945726,2019-11-12 12:48:21.311000-06:00,2019-11-12 12:00
1573584501331.0,-5.2799716,6.450687,4.2437024,2019-11-12 12:48:21.331000-06:00,2019-11-12 12:00
1573584501351.0,-4.8823223,5.997942,4.286821,2019-11-12 12:48:21.351000-06:00,2019-11-12 12:00
1573584501371.0,-4.561328,5.423026999999999,4.3371260000000005,2019-11-12 12:48:21.371000-06:00,2019-11-12 12:00
1573584501391.0,-4.319384599999999,4.7307334,4.123928500000001,2019-11-12 12:48:21.391000-06:00,2019-11-12 12:00
1573584501411.0,-4.2594975999999996,4.0887456,3.9107307999999996,2019-11-12 12:48:21.411000-06:00,2019-11-12 12:00
1573584501432.0,-4.2978252999999995,3.7869153,3.6783695,2019-11-12 12:48:21.432000-06:00,2019-11-12 12:00
1573584501452.0,-4.32178,3.6527681000000003,3.4579854,2019-11-12 12:48:21.452000-06:00,2019-11-12 12:00
1573584501472.0,-4.690684,3.8491974,3.259161,2019-11-12 12:48:21.472000-06:00,2019-11-12 12:00
1573584501492.0,-4.997305,4.5678410000000005,3.084291,2019-11-12 12:48:21.492000-06:00,2019-11-12 12:00
1573584501512.0,-4.894299500000001,6.129693,3.6424375,2019-11-12 12:48:21.512000-06:00,2019-11-12 12:00
1573584501533.0,-4.611633,8.036494,4.387430999999999,2019-11-12 12:48:21.533000-06:00,2019-11-12 12:00
1573584501553.0,-3.9361080000000004,9.016245,4.452109,2019-11-12 12:48:21.553000-06:00,2019-11-12 12:00
1573584501573.0,-3.3420296,9.344425,4.545532700000001,2019-11-12 12:48:21.573000-06:00,2019-11-12 12:00
1573584501593.0,-3.1264365,9.21986,4.6245832,2019-11-12 12:48:21.593000-06:00,2019-11-12 12:00
1573584501613.0,-3.174346,8.6425495,4.6581206,2019-11-12 12:48:21.613000-06:00,2019-11-12 12:00
1573584501633.0,-3.3132837,8.477262,4.8856910000000005,2019-11-12 12:48:21.633000-06:00,2019-11-12 12:00
1573584501653.0,-3.234233,9.021036,5.484560500000001,2019-11-12 12:48:21.653000-06:00,2019-11-12 12:00
1573584501673.0,-3.1312275,9.655837,6.0067744,2019-11-12 12:48:21.673000-06:00,2019-11-12 12:00
1573584501694.0,-3.2701652,10.285848,6.5505486,2019-11-12 12:48:21.694000-06:00,2019-11-12 12:00
1573584501714.0,-3.7875883999999997,10.364899000000001,6.873938000000001,2019-11-12 12:48:21.714000-06:00,2019-11-12 12:00
1573584501734.0,-4.2858480000000005,9.96725,6.907474499999999,2019-11-12 12:48:21.734000-06:00,2019-11-12 12:00
1573584501754.0,-4.5373735,9.574391,6.4691019999999995,2019-11-12 12:48:21.754000-06:00,2019-11-12 12:00
1573584501774.0,-4.587678400000001,9.056968,6.3086047,2019-11-12 12:48:21.774000-06:00,2019-11-12 12:00
1573584501794.0,-4.5661190000000005,8.070030000000001,6.9266385999999995,2019-11-12 12:48:21.794000-06:00,2019-11-12 12:00
1573584501814.0,-4.767339,6.651907400000001,6.948198,2019-11-12 12:48:21.814000-06:00,2019-11-12 12:00
1573584501835.0,-4.4008307,6.053038,6.768536999999999,2019-11-12 12:48:21.835000-06:00,2019-11-12 12:00
1573584501855.0,-3.8259163,7.0926757,7.453644000000001,2019-11-12 12:48:21.855000-06:00,2019-11-12 12:00
1573584501875.0,-3.5121086000000004,7.3274326,8.004603999999999,2019-11-12 12:48:21.875000-06:00,2019-11-12 12:00
1573584501895.0,-3.1911144,7.1118393,8.699292999999999,2019-11-12 12:48:21.895000-06:00,2019-11-12 12:00
1573584501915.0,-2.894075,6.433919,8.81188,2019-11-12 12:48:21.915000-06:00,2019-11-12 12:00
1573584501935.0,-2.6904595000000002,5.9668007,8.895722,2019-11-12 12:48:21.935000-06:00,2019-11-12 12:00
1573584501955.0,-2.1778271,5.6386199999999995,8.615451,2019-11-12 12:48:21.955000-06:00,2019-11-12 12:00
1573584501975.0,-1.7226860000000002,5.645806299999999,8.009395,2019-11-12 12:48:21.975000-06:00,2019-11-12 12:00
1573584501995.0,-1.341805,5.617060700000001,6.653554,2019-11-12 12:48:21.995000-06:00,2019-11-12 12:00
1573584502016.0,-0.021896362000000003,5.2265973,6.181644400000001,2019-11-12 12:48:22.016000-06:00,2019-11-12 12:00
1573584502036.0,-0.1608341,4.8816489999999995,8.18666,2019-11-12 12:48:22.036000-06:00,2019-11-12 12:00
1573584502056.0,0.16016,5.7320433,8.553168,2019-11-12 12:48:22.056000-06:00,2019-11-12 12:00
1573584502076.0,1.1997976000000001,5.3775129999999995,5.958865,2019-11-12 12:48:22.076000-06:00,2019-11-12 12:00
1573584502096.0,0.23441985,5.7919307,4.9695325,2019-11-12 12:48:22.096000-06:00,2019-11-12 12:00
1573584502116.0,0.97462285,5.873377,10.716285000000001,2019-11-12 12:48:22.116000-06:00,2019-11-12 12:00
1573584502136.0,0.94108605,4.5151405,7.202119000000001,2019-11-12 12:48:22.136000-06:00,2019-11-12 12:00
1573584502156.0,0.95066786,5.0493326,3.7190924,2019-11-12 12:48:22.156000-06:00,2019-11-12 12:00
1573584502177.0,-4.5972605,4.282778700000001,3.9658269999999995,2019-11-12 12:48:22.177000-06:00,2019-11-12 12:00
1573584502197.0,1.0608598999999999,6.999252,6.5002437,2019-11-12 12:48:22.197000-06:00,2019-11-12 12:00
1573584502217.0,0.12901878,9.938504,10.747427,2019-11-12 12:48:22.217000-06:00,2019-11-12 12:00
1573584502237.0,-0.19197533,7.7202910000000005,6.849982700000001,2019-11-12 12:48:22.237000-06:00,2019-11-12 12:00
1573584502257.0,-0.71179414,8.034099000000001,12.132013,2019-11-12 12:48:22.257000-06:00,2019-11-12 12:00
1573584502277.0,2.2298536,9.775611,10.836058999999999,2019-11-12 12:48:22.277000-06:00,2019-11-12 12:00
1573584502297.0,1.3674811000000002,5.573942,4.2221427,2019-11-12 12:48:22.297000-06:00,2019-11-12 12:00
1573584502317.0,0.9123403,2.3855603,6.603249000000001,2019-11-12 12:48:22.317000-06:00,2019-11-12 12:00
1573584502337.0,-0.63513887,0.40689495,7.405734,2019-11-12 12:48:22.337000-06:00,2019-11-12 12:00
1573584502357.0,0.72070205,0.34940340000000003,6.787700699999999,2019-11-12 12:48:22.357000-06:00,2019-11-12 12:00
1573584502378.0,1.7938763999999998,1.3028038999999998,7.0799494,2019-11-12 12:48:22.378000-06:00,2019-11-12 12:00
1573584502397.0,0.94108605,2.859865,9.017891,2019-11-12 12:48:22.397000-06:00,2019-11-12 12:00
1573584502417.0,0.93150413,2.5221023999999996,8.76397,2019-11-12 12:48:22.417000-06:00,2019-11-12 12:00
1573584502438.0,0.8213121999999999,2.6802040000000003,10.622862,2019-11-12 12:48:22.438000-06:00,2019-11-12 12:00
1573584502458.0,-0.14646123,3.0898309,9.607178999999999,2019-11-12 12:48:22.458000-06:00,2019-11-12 12:00
1573584502479.0,-0.505783,4.16061,9.120897,2019-11-12 12:48:22.479000-06:00,2019-11-12 12:00
1573584502499.0,0.19130123,3.9186663999999998,11.272036,2019-11-12 12:48:22.499000-06:00,2019-11-12 12:00
1573584502519.0,0.24160627,2.4382607999999997,11.166635000000001,2019-11-12 12:48:22.519000-06:00,2019-11-12 12:00
1573584502539.0,0.40210333,2.1819444,10.141371000000001,2019-11-12 12:48:22.539000-06:00,2019-11-12 12:00
1573584502559.0,0.049968004,1.5926566999999998,7.36022,2019-11-12 12:48:22.559000-06:00,2019-11-12 12:00
1573584502579.0,0.72549295,2.0813346,7.1973275999999995,2019-11-12 12:48:22.579000-06:00,2019-11-12 12:00
1573584502599.0,1.1710521,3.2527235,7.7650557000000004,2019-11-12 12:48:22.599000-06:00,2019-11-12 12:00
1573584502619.0,1.0967921999999999,4.270802,8.088446000000001,2019-11-12 12:48:22.619000-06:00,2019-11-12 12:00
1573584502639.0,-0.22311655,4.622937,10.055133,2019-11-12 12:48:22.639000-06:00,2019-11-12 12:00
1573584502659.0,-2.8725157,3.566531,9.252647999999999,2019-11-12 12:48:22.659000-06:00,2019-11-12 12:00
1573584502679.0,0.22723344,6.707003599999999,8.6441965,2019-11-12 12:48:22.679000-06:00,2019-11-12 12:00
1573584502699.0,0.46917674,5.708089,7.745891599999999,2019-11-12 12:48:22.699000-06:00,2019-11-12 12:00
1573584502719.0,-0.88187313,5.545196499999999,8.495677,2019-11-12 12:48:22.719000-06:00,2019-11-12 12:00
1573584502739.0,-1.8113188999999998,4.5774230000000005,8.955608999999999,2019-11-12 12:48:22.739000-06:00,2019-11-12 12:00
1573584502760.0,-1.9598384999999998,3.7581697,8.40944,2019-11-12 12:48:22.760000-06:00,2019-11-12 12:00
1573584502780.0,-2.3023917999999997,5.545196499999999,8.833439,2019-11-12 12:48:22.780000-06:00,2019-11-12 12:00
1573584502800.0,-2.728787,3.7653556000000004,9.542500500000001,2019-11-12 12:48:22.800000-06:00,2019-11-12 12:00
1573584502820.0,-2.5299622999999998,3.7150507000000004,10.809709,2019-11-12 12:48:22.820000-06:00,2019-11-12 12:00
1573584502840.0,-2.369465,2.8670514,11.274432000000001,2019-11-12 12:48:22.840000-06:00,2019-11-12 12:00
1573584502860.0,-2.3790472,2.5364752,11.490025,2019-11-12 12:48:22.860000-06:00,2019-11-12 12:00
1573584502881.0,-0.2638397,3.7773333,11.516375,2019-11-12 12:48:22.881000-06:00,2019-11-12 12:00
1573584502901.0,0.7566341,3.7078643,11.542726,2019-11-12 12:48:22.901000-06:00,2019-11-12 12:00
1573584502921.0,1.0632553999999999,3.9282483999999998,10.505483,2019-11-12 12:48:22.921000-06:00,2019-11-12 12:00
1573584502941.0,0.16255549,3.3413559999999998,9.118501,2019-11-12 12:48:22.941000-06:00,2019-11-12 12:00
1573584502961.0,0.24879268,2.2801592,8.751992999999999,2019-11-12 12:48:22.961000-06:00,2019-11-12 12:00
1573584502982.0,0.63925564,2.9724524,8.833439,2019-11-12 12:48:22.982000-06:00,2019-11-12 12:00
1573584503002.0,0.7063291,3.3892657999999996,8.965191,2019-11-12 12:48:23.002000-06:00,2019-11-12 12:00
1573584503022.0,-0.16802055,2.9964072999999996,8.761575,2019-11-12 12:48:23.022000-06:00,2019-11-12 12:00
1573584503042.0,-0.05782853,2.6059442,7.4680165999999994,2019-11-12 12:48:23.042000-06:00,2019-11-12 12:00
1573584503062.0,0.43084905,2.7233226000000004,6.7445816999999995,2019-11-12 12:48:23.062000-06:00,2019-11-12 12:00
1573584503082.0,0.7542386999999999,2.9317292999999998,7.055994500000001,2019-11-12 12:48:23.082000-06:00,2019-11-12 12:00
1573584503102.0,0.6081145,2.7975824,6.210390599999999,2019-11-12 12:48:23.102000-06:00,2019-11-12 12:00
1573584503122.0,0.55301845,3.140136,5.740876,2019-11-12 12:48:23.122000-06:00,2019-11-12 12:00
1573584503142.0,0.09548211,3.6168362999999997,7.015270699999999,2019-11-12 12:48:23.142000-06:00,2019-11-12 12:00
1573584503163.0,0.33023903,2.9964072999999996,7.9375296,2019-11-12 12:48:23.163000-06:00,2019-11-12 12:00
1573584503183.0,0.8404759,2.7520685,7.971066499999999,2019-11-12 12:48:23.183000-06:00,2019-11-12 12:00
1573584503203.0,1.4585093999999998,2.7472775,7.096717999999999,2019-11-12 12:48:23.203000-06:00,2019-11-12 12:00
1573584503223.0,1.5567241000000003,2.730509,6.8020735,2019-11-12 12:48:23.223000-06:00,2019-11-12 12:00
1573584503243.0,1.4369501,2.5652209999999998,7.812965400000001,2019-11-12 12:48:23.243000-06:00,2019-11-12 12:00
1573584503263.0,1.5950516000000001,2.505334,8.272897,2019-11-12 12:48:23.263000-06:00,2019-11-12 12:00
1573584503283.0,1.9447916,2.4047240000000003,9.532919,2019-11-12 12:48:23.283000-06:00,2019-11-12 12:00
1573584503303.0,2.0334244,2.514916,9.528128,2019-11-12 12:48:23.303000-06:00,2019-11-12 12:00
1573584503323.0,1.8393905,2.299323,9.458658999999999,2019-11-12 12:48:23.323000-06:00,2019-11-12 12:00
1573584503343.0,1.9112548999999999,1.9927018,9.58562,2019-11-12 12:48:23.343000-06:00,2019-11-12 12:00
1573584503364.0,1.9160458999999999,1.9759333,10.045551,2019-11-12 12:48:23.364000-06:00,2019-11-12 12:00
1573584503384.0,1.4537183999999999,2.3376505,10.055133,2019-11-12 12:48:23.384000-06:00,2019-11-12 12:00
1573584503404.0,1.8369951,2.08373,10.371336999999999,2019-11-12 12:48:23.404000-06:00,2019-11-12 12:00
1573584503424.0,1.4776733,2.6466672000000004,10.392896,2019-11-12 12:48:23.424000-06:00,2019-11-12 12:00
1573584503444.0,1.6285883999999997,2.3160912999999996,9.846727,2019-11-12 12:48:23.444000-06:00,2019-11-12 12:00
1573584503464.0,2.16278,2.2969275000000002,9.355654,2019-11-12 12:48:23.464000-06:00,2019-11-12 12:00
1573584503485.0,2.0454016,2.5388707999999998,9.499382,2019-11-12 12:48:23.485000-06:00,2019-11-12 12:00
1573584503505.0,2.3352543999999997,2.3041139,9.403563,2019-11-12 12:48:23.505000-06:00,2019-11-12 12:00
1573584503525.0,2.352023,2.5843849999999997,9.310139999999999,2019-11-12 12:48:23.525000-06:00,2019-11-12 12:00
1573584503545.0,2.8263276000000004,2.4622154,9.118501,2019-11-12 12:48:23.545000-06:00,2019-11-12 12:00
1573584503565.0,2.51252,2.4167016,8.9148855,2019-11-12 12:48:23.565000-06:00,2019-11-12 12:00
1573584503585.0,2.3184862,2.3687918,9.008308999999999,2019-11-12 12:48:23.585000-06:00,2019-11-12 12:00
1573584503605.0,2.3711867,2.234645,8.946027,2019-11-12 12:48:23.605000-06:00,2019-11-12 12:00
1573584503625.0,2.057379,1.7339900000000001,9.046636999999999,2019-11-12 12:48:23.625000-06:00,2019-11-12 12:00
1573584503645.0,1.7459667,1.9136509999999998,9.724557,2019-11-12 12:48:23.645000-06:00,2019-11-12 12:00
1573584503665.0,1.276453,1.7531538,9.889845,2019-11-12 12:48:23.665000-06:00,2019-11-12 12:00
1573584503686.0,1.7387805,1.3578999,8.572332000000001,2019-11-12 12:48:23.686000-06:00,2019-11-12 12:00
1573584503706.0,2.8862145,1.4225778999999998,8.967586,2019-11-12 12:48:23.706000-06:00,2019-11-12 12:00
1573584503726.0,1.3962268999999998,1.4728828999999999,10.143766000000001,2019-11-12 12:48:23.726000-06:00,2019-11-12 12:00
1573584503746.0,1.1638656,1.2213576000000002,9.767676,2019-11-12 12:48:23.746000-06:00,2019-11-12 12:00
1573584503766.0,1.4704868,1.7459673999999998,9.657484,2019-11-12 12:48:23.766000-06:00,2019-11-12 12:00
1573584503786.0,0.8213121999999999,1.7962725,9.66467,2019-11-12 12:48:23.786000-06:00,2019-11-12 12:00
1573584503806.0,0.49792250000000005,1.7124307,10.002433,2019-11-12 12:48:23.806000-06:00,2019-11-12 12:00
1573584503826.0,-0.007523477,1.4944422,9.73893,2019-11-12 12:48:23.826000-06:00,2019-11-12 12:00
1573584503846.0,-0.80761325,0.73267996,9.386795,2019-11-12 12:48:23.846000-06:00,2019-11-12 12:00
1573584503866.0,0.4883406,1.7962725,10.673167,2019-11-12 12:48:23.866000-06:00,2019-11-12 12:00
1573584503887.0,-0.7237716,1.3770638000000002,12.266160000000001,2019-11-12 12:48:23.887000-06:00,2019-11-12 12:00
1573584503907.0,-0.6519071999999999,0.10506466,10.63963,2019-11-12 12:48:23.907000-06:00,2019-11-12 12:00
1573584503928.0,-0.7932404000000001,1.2141712,9.439494999999999,2019-11-12 12:48:23.928000-06:00,2019-11-12 12:00
1573584503948.0,-0.97529685,1.4848602,10.241981,2019-11-12 12:48:23.948000-06:00,2019-11-12 12:00
1573584503968.0,-0.8243816999999999,1.5471427,10.261144999999999,2019-11-12 12:48:23.968000-06:00,2019-11-12 12:00
1573584503988.0,-1.5142795,1.2572899,9.559269,2019-11-12 12:48:23.988000-06:00,2019-11-12 12:00
1573584504008.0,-1.3585733,0.9985780999999999,9.602388000000001,2019-11-12 12:48:24.008000-06:00,2019-11-12 12:00
1573584504028.0,-1.0112290000000002,1.3267586999999998,10.064715,2019-11-12 12:48:24.028000-06:00,2019-11-12 12:00
1573584504048.0,-0.9920652,1.1806345,9.83954,2019-11-12 12:48:24.048000-06:00,2019-11-12 12:00
1573584504068.0,-1.4328332000000001,0.8644314000000001,9.997641999999999,2019-11-12 12:48:24.068000-06:00,2019-11-12 12:00
1573584504088.0,-2.0077481,1.3339451999999998,11.2265215,2019-11-12 12:48:24.088000-06:00,2019-11-12 12:00
1573584504109.0,-1.9813976999999998,1.4129958,10.646817,2019-11-12 12:48:24.109000-06:00,2019-11-12 12:00
1573584504129.0,-1.3082683000000002,0.842872,9.037055,2019-11-12 12:48:24.129000-06:00,2019-11-12 12:00
1573584504149.0,-1.2148447,1.2285441000000001,9.049032,2019-11-12 12:48:24.149000-06:00,2019-11-12 12:00
1573584504169.0,-1.2627542,1.839391,9.995246,2019-11-12 12:48:24.169000-06:00,2019-11-12 12:00
1573584504193.0,-1.2231622,1.8171493000000003,9.3556385,2019-11-12 12:48:24.193000-06:00,2019-11-12 12:00
1573584504294.0,-1.8509494,1.6697897000000002,8.946926,2019-11-12 12:48:24.294000-06:00,2019-11-12 12:00
1573584504494.0,-2.315203,0.98093355,10.657447,2019-11-12 12:48:24.494000-06:00,2019-11-12 12:00
1573584504543.0,-1.3082340000000001,0.45677033,9.569352,2019-11-12 12:48:24.543000-06:00,2019-11-12 12:00
1573584504593.0,0.10620089,0.0567736,7.780398,2019-11-12 12:48:24.593000-06:00,2019-11-12 12:00
1573584504643.0,0.3986809,-0.20729387,8.175247,2019-11-12 12:48:24.643000-06:00,2019-11-12 12:00
1573584504693.0,-0.2439726,-0.60180163,9.272605,2019-11-12 12:48:24.693000-06:00,2019-11-12 12:00
1573584504744.0,-0.9700178,-2.2088614,10.509633000000001,2019-11-12 12:48:24.744000-06:00,2019-11-12 12:00
1573584504794.0,-1.738898,-2.888292,10.912208999999999,2019-11-12 12:48:24.794000-06:00,2019-11-12 12:00
1573584504844.0,-2.4627654999999997,-2.468318,10.524935000000001,2019-11-12 12:48:24.844000-06:00,2019-11-12 12:00
1573584504894.0,-2.5407490000000004,-2.1813674,10.769944,2019-11-12 12:48:24.894000-06:00,2019-11-12 12:00
1573584504944.0,-1.6966891,-2.2813032000000004,9.858727,2019-11-12 12:48:24.944000-06:00,2019-11-12 12:00
1573584504994.0,-1.2057219,-2.4466919999999996,9.014305,2019-11-12 12:48:24.994000-06:00,2019-11-12 12:00
1573584505044.0,-0.52700615,-2.4119246,9.552996,2019-11-12 12:48:25.044000-06:00,2019-11-12 12:00
1573584505094.0,0.010318812,-1.609482,9.515074,2019-11-12 12:48:25.094000-06:00,2019-11-12 12:00
1573584505144.0,0.061298728,-0.64168626,9.521775,2019-11-12 12:48:25.144000-06:00,2019-11-12 12:00
1573584505193.0,0.4099482,0.34641409999999995,10.5330105,2019-11-12 12:48:25.193000-06:00,2019-11-12 12:00
1573584505243.0,0.15325694,1.383645,10.508780499999999,2019-11-12 12:48:25.243000-06:00,2019-11-12 12:00
1573584505293.0,0.33906683,2.1619767999999997,10.445072999999999,2019-11-12 12:48:25.293000-06:00,2019-11-12 12:00
1573584505343.0,0.34609926,2.7528257000000003,11.343191000000001,2019-11-12 12:48:25.343000-06:00,2019-11-12 12:00
1573584505393.0,0.73443604,2.5118625,11.296598,2019-11-12 12:48:25.393000-06:00,2019-11-12 12:00
1573584505443.0,1.4099998,2.5866132,11.233227000000001,2019-11-12 12:48:25.443000-06:00,2019-11-12 12:00
1573584505493.0,0.78499377,2.8736787,7.150339,2019-11-12 12:48:25.493000-06:00,2019-11-12 12:00
1573584505543.0,1.0986251,3.795425,6.28845,2019-11-12 12:48:25.543000-06:00,2019-11-12 12:00
1573584505594.0,1.317369,4.9829245,6.935753,2019-11-12 12:48:25.594000-06:00,2019-11-12 12:00
1573584505644.0,1.0305693,5.054486,6.5399528,2019-11-12 12:48:25.644000-06:00,2019-11-12 12:00
1573584505840.0,1.115956,4.2348695,8.292061,2019-11-12 12:48:25.840000-06:00,2019-11-12 12:00
1573584505860.0,1.3051988,4.0432315,8.603473,2019-11-12 12:48:25.860000-06:00,2019-11-12 12:00
1573584505880.0,1.3626903000000001,4.026463,8.955608999999999,2019-11-12 12:48:25.880000-06:00,2019-11-12 12:00
1573584505900.0,1.111165,4.076768,8.831044,2019-11-12 12:48:25.900000-06:00,2019-11-12 12:00
1573584505921.0,1.1590745,4.0384407,8.699292999999999,2019-11-12 12:48:25.921000-06:00,2019-11-12 12:00
1573584505941.0,1.1470971,3.8995023,8.692105999999999,2019-11-12 12:48:25.941000-06:00,2019-11-12 12:00
1573584505961.0,0.98180914,3.8228474,8.902908,2019-11-12 12:48:25.961000-06:00,2019-11-12 12:00
1573584505981.0,0.76142514,3.8444065999999997,9.094547,2019-11-12 12:48:25.981000-06:00,2019-11-12 12:00
1573584506001.0,0.7734025999999999,3.7509828,8.893326,2019-11-12 12:48:26.001000-06:00,2019-11-12 12:00
1573584506021.0,0.63686025,3.7821239999999996,8.749597999999999,2019-11-12 12:48:26.021000-06:00,2019-11-12 12:00
1573584506042.0,0.35179833,3.7749376000000003,8.850208,2019-11-12 12:48:26.042000-06:00,2019-11-12 12:00
1573584506062.0,0.15776455,3.6791184,9.132874000000001,2019-11-12 12:48:26.062000-06:00,2019-11-12 12:00
1573584506082.0,-0.18478889999999998,3.3916612,8.998727,2019-11-12 12:48:26.082000-06:00,2019-11-12 12:00
1573584506102.0,-0.122506455,3.4707120000000002,9.185575,2019-11-12 12:48:26.102000-06:00,2019-11-12 12:00
1573584506122.0,0.06673634,3.6982825,9.168806,2019-11-12 12:48:26.122000-06:00,2019-11-12 12:00
1573584506142.0,-0.04345566,3.475503,9.180784,2019-11-12 12:48:26.142000-06:00,2019-11-12 12:00
1573584506162.0,-0.04106018,3.5689266,9.2981615,2019-11-12 12:48:26.162000-06:00,2019-11-12 12:00
1573584506183.0,-0.005127996,3.5976722000000003,9.118501,2019-11-12 12:48:26.183000-06:00,2019-11-12 12:00
1573584506203.0,0.26795658,3.4251977999999994,8.926863,2019-11-12 12:48:26.203000-06:00,2019-11-12 12:00
1573584506223.0,0.31586614,3.3150058,9.444286,2019-11-12 12:48:26.223000-06:00,2019-11-12 12:00
1573584506243.0,0.16495097,3.195232,9.688625,2019-11-12 12:48:26.243000-06:00,2019-11-12 12:00
1573584506263.0,0.16255549,3.1137857,9.427518,2019-11-12 12:48:26.263000-06:00,2019-11-12 12:00
1573584506283.0,0.325448,3.1616952,9.252647999999999,2019-11-12 12:48:26.283000-06:00,2019-11-12 12:00
1573584506303.0,0.29191133,3.3221922,8.989144999999999,2019-11-12 12:48:26.303000-06:00,2019-11-12 12:00
1573584506323.0,0.12662333,3.475503,9.072987,2019-11-12 12:48:26.323000-06:00,2019-11-12 12:00
1573584506343.0,-0.05303757,3.2838647000000005,9.226298,2019-11-12 12:48:26.343000-06:00,2019-11-12 12:00
1573584506362.0,-0.026687294,3.4587345000000003,9.175993,2019-11-12 12:48:26.362000-06:00,2019-11-12 12:00
1573584506383.0,-0.20874368,3.6623502,9.137665,2019-11-12 12:48:26.383000-06:00,2019-11-12 12:00
1573584506403.0,-0.39559102,3.6383955,9.137665,2019-11-12 12:48:26.403000-06:00,2019-11-12 12:00
1573584506423.0,-0.32372665,3.6240224999999997,9.259835,2019-11-12 12:48:26.423000-06:00,2019-11-12 12:00
1573584506443.0,-0.44110509999999997,3.7270281,8.967586,2019-11-12 12:48:26.443000-06:00,2019-11-12 12:00
1573584506463.0,-0.38121814,3.7390056000000005,8.378298,2019-11-12 12:48:26.463000-06:00,2019-11-12 12:00
1573584506483.0,-0.22072107,3.7485876000000005,8.3998575,2019-11-12 12:48:26.483000-06:00,2019-11-12 12:00
1573584506503.0,-0.16322958,3.7605648,8.500468,2019-11-12 12:48:26.503000-06:00,2019-11-12 12:00
1573584506524.0,-0.19197533,3.6575592000000006,8.735225,2019-11-12 12:48:26.524000-06:00,2019-11-12 12:00
1573584506544.0,-0.31174925,3.6192317000000003,8.845417,2019-11-12 12:48:26.544000-06:00,2019-11-12 12:00
1573584506564.0,-0.31174925,3.6096497000000003,8.981959,2019-11-12 12:48:26.564000-06:00,2019-11-12 12:00
1573584506584.0,-0.27821255,3.6719322,9.116106,2019-11-12 12:48:26.584000-06:00,2019-11-12 12:00
1573584506604.0,-0.25904873,3.6839093999999997,8.902908,2019-11-12 12:48:26.604000-06:00,2019-11-12 12:00
1573584506624.0,-0.18239339999999998,3.6671412000000005,8.708874,2019-11-12 12:48:26.624000-06:00,2019-11-12 12:00
1573584506645.0,-0.30935377,3.7893105000000005,8.991541,2019-11-12 12:48:26.645000-06:00,2019-11-12 12:00
1573584506664.0,-0.340495,3.7150507000000004,9.049032,2019-11-12 12:48:26.664000-06:00,2019-11-12 12:00
1573584506685.0,-0.30456279999999997,3.5641356,9.4634495,2019-11-12 12:48:26.685000-06:00,2019-11-12 12:00
1573584506705.0,-0.42433673,3.5066442,9.556874,2019-11-12 12:48:26.705000-06:00,2019-11-12 12:00
1573584506725.0,-0.47703725,3.3605199999999997,9.267021000000002,2019-11-12 12:48:26.725000-06:00,2019-11-12 12:00
1573584506746.0,-0.22072107,3.3581245,8.962795,2019-11-12 12:48:26.746000-06:00,2019-11-12 12:00
1573584506765.0,-0.06980592,3.3174012000000004,8.929258,2019-11-12 12:48:26.765000-06:00,2019-11-12 12:00
1573584506785.0,-0.3931955,3.1976275000000003,8.895722,2019-11-12 12:48:26.785000-06:00,2019-11-12 12:00
1573584506805.0,-0.51536494,3.2647007,9.2191105,2019-11-12 12:48:26.805000-06:00,2019-11-12 12:00
1573584506825.0,-0.50099206,3.1497178,9.532919,2019-11-12 12:48:26.825000-06:00,2019-11-12 12:00
1573584506845.0,-0.75970376,3.0754580000000002,9.679043,2019-11-12 12:48:26.845000-06:00,2019-11-12 12:00
1573584506865.0,-1.0759068999999999,3.1497178,9.964105,2019-11-12 12:48:26.865000-06:00,2019-11-12 12:00
1573584506885.0,-1.0998616,3.2215822,9.932964,2019-11-12 12:48:26.885000-06:00,2019-11-12 12:00
1573584506905.0,-1.0279973,3.2335594,9.547292,2019-11-12 12:48:26.905000-06:00,2019-11-12 12:00
1573584506927.0,-1.1980761999999998,3.231164,9.377213000000001,2019-11-12 12:48:26.927000-06:00,2019-11-12 12:00
1573584506947.0,-1.5358386999999998,3.5210169999999996,9.26223,2019-11-12 12:48:26.947000-06:00,2019-11-12 12:00
1573584506966.0,-1.5046976,3.5042486000000004,8.993936,2019-11-12 12:48:26.966000-06:00,2019-11-12 12:00
1573584506986.0,-1.1980761999999998,3.5449717000000005,8.569937,2019-11-12 12:48:26.986000-06:00,2019-11-12 12:00
1573584507007.0,-1.2292174999999999,3.7917059999999996,8.8358345,2019-11-12 12:48:27.007000-06:00,2019-11-12 12:00
1573584507027.0,-1.7226860000000002,3.9450163999999996,9.082569,2019-11-12 12:48:27.027000-06:00,2019-11-12 12:00
1573584507047.0,-1.9502566000000003,4.1127,9.130479,2019-11-12 12:48:27.047000-06:00,2019-11-12 12:00
1573584507067.0,-2.2449005,3.877943,9.88745,2019-11-12 12:48:27.067000-06:00,2019-11-12 12:00
1573584507087.0,-3.0473857000000004,3.4898758,10.745030999999999,2019-11-12 12:48:27.087000-06:00,2019-11-12 12:00
1573584507107.0,-3.239024,3.5282035000000005,10.883969,2019-11-12 12:48:27.107000-06:00,2019-11-12 12:00
1573584507127.0,-3.2150693,3.2647007,10.644421000000001,2019-11-12 12:48:27.127000-06:00,2019-11-12 12:00
1573584507147.0,-2.187409,2.7808142000000005,9.245461,2019-11-12 12:48:27.147000-06:00,2019-11-12 12:00
1573584507168.0,-2.2784371,2.7736278,8.435789999999999,2019-11-12 12:48:27.168000-06:00,2019-11-12 12:00
1573584507188.0,-2.5155895,2.249018,8.423813,2019-11-12 12:48:27.188000-06:00,2019-11-12 12:00
1573584507208.0,-2.2496915,1.6501483000000001,7.721937,2019-11-12 12:48:27.208000-06:00,2019-11-12 12:00
1573584507228.0,-2.9443803,2.0861254000000002,7.7434970000000005,2019-11-12 12:48:27.228000-06:00,2019-11-12 12:00
1573584507248.0,-3.133623,2.9892206000000003,9.183178999999999,2019-11-12 12:48:27.248000-06:00,2019-11-12 12:00
1573584507268.0,-3.2557921000000003,3.4539435,9.168806,2019-11-12 12:48:27.268000-06:00,2019-11-12 12:00
1573584507288.0,-3.8642440000000002,3.7581697,9.437099,2019-11-12 12:48:27.288000-06:00,2019-11-12 12:00
1573584507308.0,-4.144515,3.0946217000000003,8.596287,2019-11-12 12:48:27.308000-06:00,2019-11-12 12:00
1573584507328.0,-3.5408542,2.6682267000000004,7.745891599999999,2019-11-12 12:48:27.328000-06:00,2019-11-12 12:00
1573584507349.0,-4.1013966,3.1928365000000003,8.790321,2019-11-12 12:48:27.349000-06:00,2019-11-12 12:00
1573584507369.0,-5.2560167,3.3509379999999998,8.30883,2019-11-12 12:48:27.369000-06:00,2019-11-12 12:00
1573584507389.0,-5.634502400000001,4.127073,8.656174,2019-11-12 12:48:27.389000-06:00,2019-11-12 12:00
1573584507409.0,-4.3433394,4.402553,8.347157000000001,2019-11-12 12:48:27.409000-06:00,2019-11-12 12:00
1573584507429.0,-5.1314519999999995,4.1797733,7.1590004,2019-11-12 12:48:27.429000-06:00,2019-11-12 12:00
1573584507449.0,-4.769735,4.565445400000001,6.675112700000001,2019-11-12 12:48:27.449000-06:00,2019-11-12 12:00
1573584507470.0,-4.843994599999999,4.227683,6.588875999999999,2019-11-12 12:48:27.470000-06:00,2019-11-12 12:00
1573584507490.0,-4.7745256,4.100723,6.255904,2019-11-12 12:48:27.490000-06:00,2019-11-12 12:00
1573584507510.0,-4.237938400000001,4.5606545999999994,6.1409215999999995,2019-11-12 12:48:27.510000-06:00,2019-11-12 12:00
1573584507530.0,-4.832017,4.7906203000000005,6.7469773,2019-11-12 12:48:27.530000-06:00,2019-11-12 12:00
1573584507551.0,-4.863158,4.222892,7.1446266000000005,2019-11-12 12:48:27.551000-06:00,2019-11-12 12:00
1573584507570.0,-5.016469,4.172587,6.713441,2019-11-12 12:48:27.570000-06:00,2019-11-12 12:00
1573584507590.0,-5.0380282,4.800202400000001,6.2583,2019-11-12 12:48:27.590000-06:00,2019-11-12 12:00
1573584507610.0,-5.176966,4.5007677,7.0727625,2019-11-12 12:48:27.610000-06:00,2019-11-12 12:00
1573584507630.0,-4.690684,2.6227124,8.280084,2019-11-12 12:48:27.630000-06:00,2019-11-12 12:00
1573584507650.0,-4.451136,5.5811285999999996,8.069282000000001,2019-11-12 12:48:27.650000-06:00,2019-11-12 12:00
1573584507670.0,-5.1218699999999995,7.360969,8.874162,2019-11-12 12:48:27.670000-06:00,2019-11-12 12:00
1573584507691.0,-4.906276999999999,5.248157,8.723247,2019-11-12 12:48:27.691000-06:00,2019-11-12 12:00
1573584507711.0,-5.888423,3.1473222,8.958003999999999,2019-11-12 12:48:27.711000-06:00,2019-11-12 12:00
1573584507731.0,-4.130142,4.7642703,8.018977,2019-11-12 12:48:27.731000-06:00,2019-11-12 12:00
1573584507751.0,-3.6654190000000004,2.905379,6.988921,2019-11-12 12:48:27.751000-06:00,2019-11-12 12:00
1573584507771.0,-5.0643782999999996,3.5018531999999998,7.901598,2019-11-12 12:48:27.771000-06:00,2019-11-12 12:00
1573584507791.0,-5.3182993,5.147547,7.4871798,2019-11-12 12:48:27.791000-06:00,2019-11-12 12:00
1573584507811.0,-4.9230456,4.5846095,7.130253999999999,2019-11-12 12:48:27.811000-06:00,2019-11-12 12:00
1573584507831.0,-4.312198599999999,3.200023,6.799678,2019-11-12 12:48:27.831000-06:00,2019-11-12 12:00
1573584507852.0,-4.372085,2.9724524,6.768536999999999,2019-11-12 12:48:27.852000-06:00,2019-11-12 12:00
1573584507872.0,-4.848785400000001,3.7533784,7.185349499999999,2019-11-12 12:48:27.872000-06:00,2019-11-12 12:00
1573584507892.0,-5.2128983,4.1198864,7.5877905,2019-11-12 12:48:27.892000-06:00,2019-11-12 12:00
1573584507912.0,-5.4931693,4.4792084999999995,7.642886999999999,2019-11-12 12:48:27.912000-06:00,2019-11-12 12:00
1573584507932.0,-5.481192,4.766666000000001,7.611745,2019-11-12 12:48:27.932000-06:00,2019-11-12 12:00
1573584507952.0,-5.1841526,4.507954,7.329078699999999,2019-11-12 12:48:27.952000-06:00,2019-11-12 12:00
1573584507972.0,-4.884718,4.457648799999999,6.900288000000001,2019-11-12 12:48:27.972000-06:00,2019-11-12 12:00
1573584507992.0,-4.7242203,4.888835,6.591271400000001,2019-11-12 12:48:27.992000-06:00,2019-11-12 12:00
1573584508013.0,-4.3361529999999995,4.9008126,6.246322599999999,2019-11-12 12:48:28.013000-06:00,2019-11-12 12:00
1573584508033.0,-3.6510462999999995,5.0924510000000005,5.973237999999999,2019-11-12 12:48:28.033000-06:00,2019-11-12 12:00
1573584508053.0,-3.4857583,5.042146,6.004379,2019-11-12 12:48:28.053000-06:00,2019-11-12 12:00
1573584508073.0,-3.619905,4.898417,6.4714975,2019-11-12 12:48:28.073000-06:00,2019-11-12 12:00
1573584508093.0,-4.125351,4.747502,7.247632,2019-11-12 12:48:28.093000-06:00,2019-11-12 12:00
1573584508113.0,-4.4631133,4.6804285000000005,7.760265400000001,2019-11-12 12:48:28.113000-06:00,2019-11-12 12:00
1573584508133.0,-4.5469555999999995,4.5367,7.750683,2019-11-12 12:48:28.133000-06:00,2019-11-12 12:00
1573584508153.0,-5.200921,4.812180000000001,7.769847,2019-11-12 12:48:28.153000-06:00,2019-11-12 12:00
1573584508173.0,-5.900400599999999,5.2146206,8.018977,2019-11-12 12:48:28.173000-06:00,2019-11-12 12:00
1573584508193.0,-5.9051914000000005,4.814575700000001,8.090841000000001,2019-11-12 12:48:28.193000-06:00,2019-11-12 12:00
1573584508214.0,-5.232062,4.3785987,7.6860046,2019-11-12 12:48:28.214000-06:00,2019-11-12 12:00
1573584508234.0,-5.0883335999999995,4.6061687000000004,7.187745,2019-11-12 12:48:28.234000-06:00,2019-11-12 12:00
1573584508254.0,-5.349440599999999,5.341580400000001,6.603249000000001,2019-11-12 12:48:28.254000-06:00,2019-11-12 12:00
1573584508274.0,-5.22248,5.602688,5.982819999999999,2019-11-12 12:48:28.274000-06:00,2019-11-12 12:00
1573584508294.0,-4.8368077000000005,5.660179599999999,5.5324697,2019-11-12 12:48:28.294000-06:00,2019-11-12 12:00
1573584508314.0,-4.415204,5.799117,5.168357,2019-11-12 12:48:28.314000-06:00,2019-11-12 12:00
1573584508334.0,-4.216379,6.048247,5.132425,2019-11-12 12:48:28.334000-06:00,2019-11-12 12:00
1573584508355.0,-4.7194294999999995,5.921286599999999,5.7863903,2019-11-12 12:48:28.355000-06:00,2019-11-12 12:00
1573584508375.0,-5.7015758000000005,5.645806299999999,6.8116555,2019-11-12 12:48:28.375000-06:00,2019-11-12 12:00
1573584508395.0,-6.1519260000000004,5.322417,7.3961515,2019-11-12 12:48:28.395000-06:00,2019-11-12 12:00
1573584508415.0,-6.293259,5.0828690000000005,7.439271000000001,2019-11-12 12:48:28.415000-06:00,2019-11-12 12:00
1573584508436.0,-6.3052363,5.142755999999999,6.809260000000001,2019-11-12 12:48:28.436000-06:00,2019-11-12 12:00
1573584508456.0,-6.4034510000000004,5.5260324,6.1337347,2019-11-12 12:48:28.456000-06:00,2019-11-12 12:00
1573584508476.0,-6.532807,5.7823486,5.783995,2019-11-12 12:48:28.476000-06:00,2019-11-12 12:00
1573584508496.0,-6.420219400000001,5.372722,5.702548999999999,2019-11-12 12:48:28.496000-06:00,2019-11-12 12:00
1573584508516.0,-5.6632485,4.687615,5.3360405,2019-11-12 12:48:28.516000-06:00,2019-11-12 12:00
1573584508536.0,-5.0332375,4.5702367,4.871318,2019-11-12 12:48:28.536000-06:00,2019-11-12 12:00
1573584508556.0,-4.606841999999999,4.9559083,4.6485386,2019-11-12 12:48:28.556000-06:00,2019-11-12 12:00
1573584508576.0,-4.479882,5.2601347,4.751544,2019-11-12 12:48:28.576000-06:00,2019-11-12 12:00
1573584508596.0,-4.6284013,5.3966765,5.1563797,2019-11-12 12:48:28.596000-06:00,2019-11-12 12:00
1573584508616.0,-5.1482205,5.147547,5.875023400000001,2019-11-12 12:48:28.616000-06:00,2019-11-12 12:00
1573584508636.0,-5.5530562,4.934349500000001,6.5673165,2019-11-12 12:48:28.636000-06:00,2019-11-12 12:00
1573584508656.0,-5.711158,4.757084,7.077553699999999,2019-11-12 12:48:28.656000-06:00,2019-11-12 12:00
1573584508677.0,-5.5746155,4.4648356,7.365011,2019-11-12 12:48:28.677000-06:00,2019-11-12 12:00
1573584508697.0,-5.301531,4.306734,7.3171015,2019-11-12 12:48:28.697000-06:00,2019-11-12 12:00
1573584508717.0,-5.371,4.107908999999999,7.345847,2019-11-12 12:48:28.717000-06:00,2019-11-12 12:00
1573584508737.0,-5.430886699999999,4.0432315,7.4847850000000005,2019-11-12 12:48:28.737000-06:00,2019-11-12 12:00
1573584508758.0,-5.375791,3.8923163,7.5470667,2019-11-12 12:48:28.758000-06:00,2019-11-12 12:00
1573584508778.0,-5.3422540000000005,3.6479769999999996,7.556649,2019-11-12 12:48:28.778000-06:00,2019-11-12 12:00
1573584508798.0,-5.2344574999999995,3.7246327000000004,7.472808000000001,2019-11-12 12:48:28.798000-06:00,2019-11-12 12:00
1573584508818.0,-5.2248755,3.8971071000000004,7.393757000000001,2019-11-12 12:48:28.818000-06:00,2019-11-12 12:00
1573584508838.0,-5.495565,4.191751,7.580603599999999,2019-11-12 12:48:28.838000-06:00,2019-11-12 12:00
1573584508858.0,-5.840513,4.3738074000000005,7.8584795,2019-11-12 12:48:28.858000-06:00,2019-11-12 12:00
1573584508878.0,-6.2166038,4.3258980000000005,7.887225,2019-11-12 12:48:28.878000-06:00,2019-11-12 12:00
1573584508898.0,-6.482501999999999,4.292361,7.808175,2019-11-12 12:48:28.898000-06:00,2019-11-12 12:00
1573584508919.0,-6.187858,4.297152,7.3171015,2019-11-12 12:48:28.919000-06:00,2019-11-12 12:00
1573584508939.0,-5.5195193,4.237265,6.517011599999999,2019-11-12 12:48:28.939000-06:00,2019-11-12 12:00
1573584508959.0,-5.181757,4.4336944,5.951678299999999,2019-11-12 12:48:28.959000-06:00,2019-11-12 12:00
1573584508979.0,-5.3135085,4.551073000000001,5.748063,2019-11-12 12:48:28.979000-06:00,2019-11-12 12:00
1573584508999.0,-5.5482655,4.661265,5.803158799999999,2019-11-12 12:48:28.999000-06:00,2019-11-12 12:00
1573584509019.0,-5.4548416,4.392971,5.6642212999999995,2019-11-12 12:48:29.019000-06:00,2019-11-12 12:00
1573584509039.0,-5.3686047,4.189355399999999,5.7600403,2019-11-12 12:48:29.039000-06:00,2019-11-12 12:00
1573584509059.0,-5.2440394999999995,4.2492423,5.839091000000001,2019-11-12 12:48:29.059000-06:00,2019-11-12 12:00
1573584509080.0,-4.9877234,4.246847,5.8726277,2019-11-12 12:48:29.080000-06:00,2019-11-12 12:00
1573584509100.0,-5.050006,4.0911406999999995,6.2079949999999995,2019-11-12 12:48:29.100000-06:00,2019-11-12 12:00
1573584509120.0,-5.1649885,3.8252425000000003,6.770932000000001,2019-11-12 12:48:29.120000-06:00,2019-11-12 12:00
1573584509140.0,-5.3422540000000005,3.9018980000000005,7.2260732999999995,2019-11-12 12:48:29.140000-06:00,2019-11-12 12:00
1573584509159.0,-5.636898,4.172587,7.511135,2019-11-12 12:48:29.159000-06:00,2019-11-12 12:00
1573584509180.0,-6.068084,4.431299,7.800988,2019-11-12 12:48:29.180000-06:00,2019-11-12 12:00
1573584509201.0,-6.4178239999999995,4.546282,7.9327393,2019-11-12 12:48:29.201000-06:00,2019-11-12 12:00
1573584509221.0,-6.841823599999999,4.776248000000001,7.8465023,2019-11-12 12:48:29.221000-06:00,2019-11-12 12:00
1573584509241.0,-6.983157,5.0349593,7.5015526,2019-11-12 12:48:29.241000-06:00,2019-11-12 12:00
1573584509260.0,-6.6741399999999995,5.401467299999999,6.924243,2019-11-12 12:48:29.260000-06:00,2019-11-12 12:00
1573584509280.0,-6.242954,5.662575,6.4762883,2019-11-12 12:48:29.280000-06:00,2019-11-12 12:00
1573584509300.0,-6.008197,5.3535580000000005,6.35891,2019-11-12 12:48:29.300000-06:00,2019-11-12 12:00
1573584509321.0,-6.199835299999999,5.2194114,6.608039999999999,2019-11-12 12:48:29.321000-06:00,2019-11-12 12:00
1573584509341.0,-6.6573720000000005,5.0349593,7.012875599999999,2019-11-12 12:48:29.341000-06:00,2019-11-12 12:00
1573584509361.0,-6.841823599999999,4.7355247,7.082344,2019-11-12 12:48:29.361000-06:00,2019-11-12 12:00
1573584509381.0,-6.813078,4.723547,6.761350599999999,2019-11-12 12:48:29.381000-06:00,2019-11-12 12:00
1573584509401.0,-6.631021499999999,4.91279,6.2966275000000005,2019-11-12 12:48:29.401000-06:00,2019-11-12 12:00
1573584509422.0,-6.4345922,4.9463263,5.88221,2019-11-12 12:48:29.422000-06:00,2019-11-12 12:00
1573584509442.0,-6.1950445,4.814575700000001,5.463001,2019-11-12 12:48:29.442000-06:00,2019-11-12 12:00
1573584509461.0,-6.0537114,4.618146,5.2402215,2019-11-12 12:48:29.461000-06:00,2019-11-12 12:00
1573584509482.0,-5.711158,4.455253599999999,5.0078597,2019-11-12 12:48:29.482000-06:00,2019-11-12 12:00
1573584509502.0,-5.263203599999999,4.3905754,4.7036343,2019-11-12 12:48:29.502000-06:00,2019-11-12 12:00
1573584509522.0,-4.942209,4.46244,4.495228,2019-11-12 12:48:29.522000-06:00,2019-11-12 12:00
1573584509543.0,-4.951791,4.522327,4.9048543,2019-11-12 12:48:29.543000-06:00,2019-11-12 12:00
1573584509563.0,-5.3135085,4.426508,5.704944599999999,2019-11-12 12:48:29.563000-06:00,2019-11-12 12:00
1573584509583.0,-5.766254,4.445671599999999,6.519407,2019-11-12 12:48:29.583000-06:00,2019-11-12 12:00
1573584509603.0,-6.003406,4.4241123,7.0847397,2019-11-12 12:48:29.603000-06:00,2019-11-12 12:00
1573584509623.0,-6.082457,4.1869597,7.448852499999999,2019-11-12 12:48:29.623000-06:00,2019-11-12 12:00
1573584509643.0,-6.317214,4.0384407,7.678818700000001,2019-11-12 12:48:29.643000-06:00,2019-11-12 12:00
1573584509663.0,-6.729236,4.2636156,7.738705599999999,2019-11-12 12:48:29.663000-06:00,2019-11-12 12:00
1573584509683.0,-7.114907700000001,4.7906203000000005,7.4871798,2019-11-12 12:48:29.683000-06:00,2019-11-12 12:00
1573584509703.0,-7.1676087,5.0732870000000005,6.9913163,2019-11-12 12:48:29.703000-06:00,2019-11-12 12:00
1573584509723.0,-6.853801,5.169106,6.466706299999999,2019-11-12 12:48:29.723000-06:00,2019-11-12 12:00
1573584509743.0,-6.611858,5.157129,6.023543,2019-11-12 12:48:29.743000-06:00,2019-11-12 12:00
1573584509763.0,-6.448965,5.058914,5.73369,2019-11-12 12:48:29.763000-06:00,2019-11-12 12:00
1573584509783.0,-6.22379,4.874462599999999,5.5300746,2019-11-12 12:48:29.783000-06:00,2019-11-12 12:00
1573584509804.0,-6.1639029999999995,4.6995926,5.4318599999999995,2019-11-12 12:48:29.804000-06:00,2019-11-12 12:00
1573584509824.0,-6.1758804000000005,4.615750299999999,5.398323,2019-11-12 12:48:29.824000-06:00,2019-11-12 12:00
1573584509844.0,-6.2549314,4.675637200000001,5.3791595,2019-11-12 12:48:29.844000-06:00,2019-11-12 12:00
1573584509864.0,-6.369914499999999,4.6588693,5.376764,2019-11-12 12:48:29.864000-06:00,2019-11-12 12:00
1573584509885.0,-6.592694,4.6444964,5.4653964,2019-11-12 12:48:29.885000-06:00,2019-11-12 12:00
1573584509905.0,-6.6933039999999995,4.673242,5.477374,2019-11-12 12:48:29.905000-06:00,2019-11-12 12:00
1573584509925.0,-6.623835000000001,4.6660557,5.343227,2019-11-12 12:48:29.925000-06:00,2019-11-12 12:00
1573584509945.0,-6.6573720000000005,4.7954115999999996,5.228244,2019-11-12 12:48:29.945000-06:00,2019-11-12 12:00
1573584509965.0,-6.6980949999999995,4.9463263,5.086910700000001,2019-11-12 12:48:29.965000-06:00,2019-11-12 12:00
1573584509985.0,-6.602276,4.919976,4.8641315,2019-11-12 12:48:29.985000-06:00,2019-11-12 12:00
1573584510005.0,-6.731631299999999,5.063705000000001,4.722798,2019-11-12 12:48:30.005000-06:00,2019-11-12 12:00
1573584510025.0,-6.7867274,5.284089,4.7467527,2019-11-12 12:48:30.025000-06:00,2019-11-12 12:00
1573584510046.0,-6.405846599999999,5.1762924,4.722798,2019-11-12 12:48:30.046000-06:00,2019-11-12 12:00
1573584510066.0,-6.0249653,4.8313440000000005,4.821013,2019-11-12 12:48:30.066000-06:00,2019-11-12 12:00
1573584510086.0,-5.936333,4.797806700000001,4.9695325,2019-11-12 12:48:30.086000-06:00,2019-11-12 12:00
1573584510106.0,-6.099225499999999,4.903208,5.233035,2019-11-12 12:48:30.106000-06:00,2019-11-12 12:00
1573584510126.0,-6.19744,4.800202400000001,5.508515,2019-11-12 12:48:30.126000-06:00,2019-11-12 12:00
1573584510146.0,-6.4345922,4.7642703,5.783995,2019-11-12 12:48:30.146000-06:00,2019-11-12 12:00
1573584510167.0,-6.724444999999999,4.733129,6.0546846,2019-11-12 12:48:30.167000-06:00,2019-11-12 12:00
1573584510187.0,-6.6597675999999995,4.4648356,5.9995885,2019-11-12 12:48:30.187000-06:00,2019-11-12 12:00
1573584510207.0,-6.6358122999999996,4.337875,5.5851703,2019-11-12 12:48:30.207000-06:00,2019-11-12 12:00
1573584510227.0,-6.810682300000001,4.407344,5.0749335,2019-11-12 12:48:30.227000-06:00,2019-11-12 12:00
1573584510247.0,-6.3938690000000005,4.352248,4.7299843,2019-11-12 12:48:30.247000-06:00,2019-11-12 12:00
1573584510267.0,-5.7854176,4.1989374,4.691657,2019-11-12 12:48:30.267000-06:00,2019-11-12 12:00
1573584510287.0,-5.485983,3.9114800000000005,5.03421,2019-11-12 12:48:30.287000-06:00,2019-11-12 12:00
1573584510307.0,-6.190253299999999,4.105514,5.6258935999999995,2019-11-12 12:48:30.307000-06:00,2019-11-12 12:00
1573584510327.0,-7.3808064,4.793016000000001,5.9900064,2019-11-12 12:48:30.327000-06:00,2019-11-12 12:00
1573584510347.0,-8.303066000000001,5.698507,5.987611,2019-11-12 12:48:30.347000-06:00,2019-11-12 12:00
1573584510367.0,-9.036082,6.424337,5.9301195,2019-11-12 12:48:30.367000-06:00,2019-11-12 12:00
1573584510387.0,-9.309168,6.740539999999999,5.9157459999999995,2019-11-12 12:48:30.387000-06:00,2019-11-12 12:00
1573584510407.0,-9.124716000000001,6.2470713,5.7696223,2019-11-12 12:48:30.407000-06:00,2019-11-12 12:00
1573584510427.0,-8.489913,5.777558,5.182729699999999,2019-11-12 12:48:30.427000-06:00,2019-11-12 12:00
1573584510449.0,-7.5724444,5.4254226999999995,4.274843,2019-11-12 12:48:30.449000-06:00,2019-11-12 12:00
1573584510468.0,-6.9280610000000005,5.080473400000001,3.6903467000000005,2019-11-12 12:48:30.468000-06:00,2019-11-12 12:00
1573584510488.0,-6.3052363,4.728338,3.20646,2019-11-12 12:48:30.488000-06:00,2019-11-12 12:00
1573584510508.0,-5.8524910000000006,4.476813,3.0004492000000003,2019-11-12 12:48:30.508000-06:00,2019-11-12 12:00
1573584510529.0,-5.9099827000000005,4.512745,3.1130366,2019-11-12 12:48:30.529000-06:00,2019-11-12 12:00
1573584510549.0,-6.367519000000001,4.6948013,3.6017146,2019-11-12 12:48:30.549000-06:00,2019-11-12 12:00
1573584510569.0,-6.7819366,4.6205416,4.286821,2019-11-12 12:48:30.569000-06:00,2019-11-12 12:00
1573584510589.0,-6.978366,4.555863400000001,4.722798,2019-11-12 12:48:30.589000-06:00,2019-11-12 12:00
1573584510609.0,-7.086162599999999,4.7019877,4.8737135,2019-11-12 12:48:30.609000-06:00,2019-11-12 12:00
1573584510629.0,-7.225100500000001,5.0732870000000005,4.914436299999999,2019-11-12 12:48:30.629000-06:00,2019-11-12 12:00
1573584510650.0,-7.349664999999999,5.3367895999999995,5.0485835,2019-11-12 12:48:30.650000-06:00,2019-11-12 12:00
1573584510669.0,-7.27301,5.2864842,5.216267,2019-11-12 12:48:30.669000-06:00,2019-11-12 12:00
1573584510689.0,-7.0669985,5.08766,5.28334,2019-11-12 12:48:30.689000-06:00,2019-11-12 12:00
1573584510709.0,-6.918479,5.078078,5.2689676,2019-11-12 12:48:30.709000-06:00,2019-11-12 12:00
1573584510730.0,-6.755586599999999,5.046937000000001,5.3719730000000006,2019-11-12 12:48:30.730000-06:00,2019-11-12 12:00
1573584510750.0,-6.3244004,4.8529029999999995,5.276153599999999,2019-11-12 12:48:30.750000-06:00,2019-11-12 12:00
1573584510770.0,-6.106412000000001,4.7546883,5.168357,2019-11-12 12:48:30.770000-06:00,2019-11-12 12:00
1573584510790.0,-6.1854625,4.757084,5.173148,2019-11-12 12:48:30.790000-06:00,2019-11-12 12:00
1573584510810.0,-6.2166038,4.788225,5.1036797,2019-11-12 12:48:30.810000-06:00,2019-11-12 12:00
1573584510830.0,-6.0848527,4.654078500000001,4.868922,2019-11-12 12:48:30.830000-06:00,2019-11-12 12:00
1573584510850.0,-6.190253299999999,4.761875,4.761126,2019-11-12 12:48:30.850000-06:00,2019-11-12 12:00
1573584510870.0,-6.333982499999999,5.070891400000001,4.770708,2019-11-12 12:48:30.870000-06:00,2019-11-12 12:00
1573584510890.0,-6.4777107,4.991841,5.096493,2019-11-12 12:48:30.890000-06:00,2019-11-12 12:00
1573584510910.0,-6.587903,4.517536,5.4606056,2019-11-12 12:48:30.910000-06:00,2019-11-12 12:00
1573584510931.0,-6.858592,4.4241123,5.6354755999999995,2019-11-12 12:48:30.931000-06:00,2019-11-12 12:00
1573584510951.0,-7.131676700000001,4.651683,5.5540294999999995,2019-11-12 12:48:30.951000-06:00,2019-11-12 12:00
1573584510972.0,-7.1915636,4.6852193,5.4270687,2019-11-12 12:48:30.972000-06:00,2019-11-12 12:00
1573584510992.0,-7.0119023,4.4384856,5.3360405,2019-11-12 12:48:30.992000-06:00,2019-11-12 12:00
1573584511012.0,-6.729236,4.385785,4.9551597,2019-11-12 12:48:31.012000-06:00,2019-11-12 12:00
1573584511032.0,-6.496875,4.5343046,4.4569,2019-11-12 12:48:31.032000-06:00,2019-11-12 12:00
1573584511052.0,-6.523225,4.927163,4.1071599999999995,2019-11-12 12:48:31.052000-06:00,2019-11-12 12:00
1573584511072.0,-7.064603,5.413444999999999,4.0400867,2019-11-12 12:48:31.072000-06:00,2019-11-12 12:00
1573584511092.0,-8.056332000000001,5.868586,4.4545045,2019-11-12 12:48:31.092000-06:00,2019-11-12 12:00
1573584511112.0,-8.82049,6.139275,5.036606,2019-11-12 12:48:31.112000-06:00,2019-11-12 12:00
1573584511132.0,-8.456375999999999,5.9524274,5.1851254,2019-11-12 12:48:31.132000-06:00,2019-11-12 12:00
1573584511152.0,-7.1364675,5.545196499999999,4.265262,2019-11-12 12:48:31.152000-06:00,2019-11-12 12:00
1573584511172.0,-6.1639029999999995,5.684133999999999,3.189692,2019-11-12 12:48:31.172000-06:00,2019-11-12 12:00
1573584511192.0,-5.8716550000000005,5.9236817,2.509376,2019-11-12 12:48:31.192000-06:00,2019-11-12 12:00
1573584511212.0,-6.192648999999999,6.314145,2.3105512000000004,2019-11-12 12:48:31.212000-06:00,2019-11-12 12:00
1573584511232.0,-7.129281,6.6423254,2.9118164,2019-11-12 12:48:31.232000-06:00,2019-11-12 12:00
1573584511253.0,-7.9916534,6.5920205,3.9131264999999997,2019-11-12 12:48:31.253000-06:00,2019-11-12 12:00
1573584511273.0,-8.437213,6.4099639999999996,4.7467527,2019-11-12 12:48:31.273000-06:00,2019-11-12 12:00
1573584511293.0,-8.509077,6.108134,5.173148,2019-11-12 12:48:31.293000-06:00,2019-11-12 12:00
1573584511313.0,-7.7976193,5.98836,4.6653066,2019-11-12 12:48:31.313000-06:00,2019-11-12 12:00
1573584511333.0,-6.9927387,6.048247,3.90594,2019-11-12 12:48:31.333000-06:00,2019-11-12 12:00
1573584511354.0,-6.5615524999999995,6.244676,3.4747538999999996,2019-11-12 12:48:31.354000-06:00,2019-11-12 12:00
1573584511374.0,-6.37231,6.2255125,3.249579,2019-11-12 12:48:31.374000-06:00,2019-11-12 12:00
1573584511394.0,-6.410637400000001,6.2758174,3.1968784,2019-11-12 12:48:31.394000-06:00,2019-11-12 12:00
1573584511414.0,-6.3794965999999995,6.340495,3.2376012999999997,2019-11-12 12:48:31.414000-06:00,2019-11-12 12:00
1573584511434.0,-6.2645135000000005,6.254258,3.4891272000000004,2019-11-12 12:48:31.434000-06:00,2019-11-12 12:00
1573584511455.0,-6.2645135000000005,6.0171056,3.896358,2019-11-12 12:48:31.455000-06:00,2019-11-12 12:00
1573584511474.0,-6.470524299999999,5.863795,4.3802447,2019-11-12 12:48:31.474000-06:00,2019-11-12 12:00
1573584511494.0,-6.5807166,5.7464166,4.6748886,2019-11-12 12:48:31.494000-06:00,2019-11-12 12:00
1573584511515.0,-6.6621630000000005,5.703298,4.797058,2019-11-12 12:48:31.515000-06:00,2019-11-12 12:00
1573584511535.0,-6.6980949999999995,5.585919400000001,4.8593407,2019-11-12 12:48:31.535000-06:00,2019-11-12 12:00
1573584511556.0,-6.6741399999999995,5.458958999999999,4.914436299999999,2019-11-12 12:48:31.556000-06:00,2019-11-12 12:00
1573584511575.0,-6.6501856,5.351162400000001,4.8928769999999995,2019-11-12 12:48:31.575000-06:00,2019-11-12 12:00
1573584511596.0,-6.590298700000001,5.1331739999999995,4.842571700000001,2019-11-12 12:48:31.596000-06:00,2019-11-12 12:00
1573584511616.0,-6.487293,4.9894457,4.777894,2019-11-12 12:48:31.616000-06:00,2019-11-12 12:00
1573584511636.0,-6.563948,4.9654903,4.828199400000001,2019-11-12 12:48:31.636000-06:00,2019-11-12 12:00
1573584511656.0,-6.743608999999999,4.836134400000001,4.940787,2019-11-12 12:48:31.656000-06:00,2019-11-12 12:00
1573584511676.0,-6.935247400000001,4.7211514,4.9240184000000005,2019-11-12 12:48:31.676000-06:00,2019-11-12 12:00
1573584511696.0,-7.253846,4.816971,4.832990000000001,2019-11-12 12:48:31.696000-06:00,2019-11-12 12:00
1573584511716.0,-7.4766254,5.0756825999999995,4.73238,2019-11-12 12:48:31.716000-06:00,2019-11-12 12:00
1573584511736.0,-7.3472695,5.0253773,4.497623,2019-11-12 12:48:31.736000-06:00,2019-11-12 12:00
1573584511756.0,-7.304150999999999,4.860089299999999,4.353894,2019-11-12 12:48:31.756000-06:00,2019-11-12 12:00
1573584511776.0,-7.352060300000001,4.807389,4.258075,2019-11-12 12:48:31.776000-06:00,2019-11-12 12:00
1573584511797.0,-7.376015700000001,4.8217620000000005,3.9682226000000003,2019-11-12 12:48:31.797000-06:00,2019-11-12 12:00
1573584511817.0,-7.493394,4.898417,3.7861656999999997,2019-11-12 12:48:31.817000-06:00,2019-11-12 12:00
1573584511837.0,-7.385597,5.008609,3.4915222999999997,2019-11-12 12:48:31.837000-06:00,2019-11-12 12:00
1573584511857.0,-7.009507000000001,5.063705000000001,3.1274095,2019-11-12 12:48:31.857000-06:00,2019-11-12 12:00
1573584511877.0,-6.724444999999999,5.106824,2.8902571,2019-11-12 12:48:31.877000-06:00,2019-11-12 12:00
1573584511897.0,-6.9711795,5.276903,3.0938725,2019-11-12 12:48:31.897000-06:00,2019-11-12 12:00
1573584511917.0,-7.490998299999999,5.276903,3.6208777000000003,2019-11-12 12:48:31.917000-06:00,2019-11-12 12:00
1573584511937.0,-7.811992599999999,5.2361794,3.9778047,2019-11-12 12:48:31.937000-06:00,2019-11-12 12:00
1573584511958.0,-7.9724894,5.449376999999999,4.0281096,2019-11-12 12:48:31.958000-06:00,2019-11-12 12:00
1573584511978.0,-7.788037299999999,5.533219,3.8149117999999995,2019-11-12 12:48:31.978000-06:00,2019-11-12 12:00
1573584511998.0,-7.3664336,5.423026999999999,3.5609907999999995,2019-11-12 12:48:31.998000-06:00,2019-11-12 12:00
1573584512018.0,-7.1364675,5.3775129999999995,3.52985,2019-11-12 12:48:32.018000-06:00,2019-11-12 12:00
1573584512038.0,-7.1101174,5.3631400000000005,3.7119063999999997,2019-11-12 12:48:32.038000-06:00,2019-11-12 12:00
1573584512058.0,-7.234682,5.2960663,3.90594,2019-11-12 12:48:32.058000-06:00,2019-11-12 12:00
1573584512078.0,-7.3472695,5.293671,4.08081,2019-11-12 12:48:32.078000-06:00,2019-11-12 12:00
1573584512098.0,-7.402365700000001,5.331999,4.1694427,2019-11-12 12:48:32.098000-06:00,2019-11-12 12:00
1573584512118.0,-7.3664336,5.3128347,4.0951830000000005,2019-11-12 12:48:32.118000-06:00,2019-11-12 12:00
1573584512138.0,-7.376015700000001,5.317626000000001,4.0736237,2019-11-12 12:48:32.138000-06:00,2019-11-12 12:00
1573584512159.0,-7.313733,5.2649254999999995,4.0784144,2019-11-12 12:48:32.159000-06:00,2019-11-12 12:00
1573584512179.0,-7.4718347000000005,5.3631400000000005,4.2628665,2019-11-12 12:48:32.179000-06:00,2019-11-12 12:00
1573584512199.0,-7.6059813,5.456563500000001,4.3826404000000005,2019-11-12 12:48:32.199000-06:00,2019-11-12 12:00
1573584512219.0,-7.7089868,5.5116596,4.411386,2019-11-12 12:48:32.219000-06:00,2019-11-12 12:00
1573584512239.0,-7.7018002999999995,5.442191,4.3610809999999995,2019-11-12 12:48:32.239000-06:00,2019-11-12 12:00
1573584512260.0,-7.629935700000001,5.389490599999999,4.1742334,2019-11-12 12:48:32.260000-06:00,2019-11-12 12:00
1573584512280.0,-7.629935700000001,5.497287,3.9370812999999996,2019-11-12 12:48:32.280000-06:00,2019-11-12 12:00
1573584512300.0,-7.5916085,5.600292700000001,3.7166967000000004,2019-11-12 12:48:32.300000-06:00,2019-11-12 12:00
1573584512320.0,-7.296964599999999,5.53801,3.441217,2019-11-12 12:48:32.320000-06:00,2019-11-12 12:00
1573584512340.0,-7.0119023,5.523637,3.2376012999999997,2019-11-12 12:48:32.340000-06:00,2019-11-12 12:00
1573584512360.0,-6.975970299999999,5.5164504,3.2471832999999997,2019-11-12 12:48:32.360000-06:00,2019-11-12 12:00
1573584512380.0,-7.141258199999999,5.518846,3.5130816,2019-11-12 12:48:32.380000-06:00,2019-11-12 12:00
1573584512400.0,-7.1220946,5.322417,3.8412618999999997,2019-11-12 12:48:32.400000-06:00,2019-11-12 12:00
1573584512421.0,-6.841823599999999,5.08766,4.0185275,2019-11-12 12:48:32.421000-06:00,2019-11-12 12:00
1573584512441.0,-6.7915187,4.948722,4.1646513999999994,2019-11-12 12:48:32.441000-06:00,2019-11-12 12:00
1573584512461.0,-6.9568067,4.898417,4.339521400000001,2019-11-12 12:48:32.461000-06:00,2019-11-12 12:00
1573584512481.0,-7.208332,4.8433209999999995,4.540742,2019-11-12 12:48:32.481000-06:00,2019-11-12 12:00
1573584512501.0,-7.349664999999999,4.7043834,4.694052,2019-11-12 12:48:32.501000-06:00,2019-11-12 12:00
1573584512521.0,-7.383202000000001,4.548677400000001,4.73238,2019-11-12 12:48:32.521000-06:00,2019-11-12 12:00
1573584512531.0,-7.4096546000000005,4.520359,4.7145224,2019-11-12 12:48:32.531000-06:00,2019-11-12 12:00
